# PadDis v8.1
seq,timestamp_ms,accel_x,accel_y,accel_z,q_w,q_x,q_y,q_z,roll,pitch,yaw,stroke_count,cpm,hz
0,22039,0.15234,-6.58984,7.31641,0.87414551,-0.33831787,0.11785889,-0.32794189,-41.97810,-0.90790,-40.77956,0,0,0.000
1,22047,0.19141,-6.58984,7.35156,0.87414551,-0.33831787,0.11785889,-0.32800293,-41.97717,-0.91023,-40.78569,0,0,0.000
2,22058,0.19141,-6.62891,7.43359,0.87414551,-0.33825684,0.11779785,-0.32800293,-41.96879,-0.91410,-40.78428,0,0,0.000
3,22066,0.15234,-6.58984,7.35547,0.87414551,-0.33825684,0.11785889,-0.32800293,-41.97105,-0.90797,-40.78661,0,0,0.000
4,22075,0.15234,-6.55078,7.31250,0.87414551,-0.33825684,0.11785889,-0.32800293,-41.97105,-0.90797,-40.78661,0,0,0.000
5,22086,0.15234,-6.55078,7.35156,0.87414551,-0.33825684,0.11779785,-0.32800293,-41.96879,-0.91410,-40.78428,0,0,0.000
6,22097,0.19141,-6.58984,7.39453,0.87414551,-0.33825684,0.11773682,-0.32794189,-41.96746,-0.91790,-40.77582,0,0,0.000
7,22105,0.19141,-6.62891,7.43359,0.87414551,-0.33837891,0.11767578,-0.32794189,-41.97746,-0.92854,-40.77164,0,0,0.000
8,22115,0.19141,-6.58984,7.39453,0.87414551,-0.33837891,0.11767578,-0.32794189,-41.97746,-0.92854,-40.77164,0,0,0.000
9,22126,0.19141,-6.58984,7.39453,0.87414551,-0.33831787,0.11761475,-0.32794189,-41.96907,-0.93241,-40.77023,0,0,0.000
10,22137,0.19141,-6.62891,7.35156,0.87420654,-0.33825684,0.11755371,-0.32794189,-41.95835,-0.93536,-40.76657,0,0,0.000
11,22145,0.19141,-6.58984,7.39453,0.87426758,-0.33819580,0.11743164,-0.32794189,-41.94538,-0.94444,-40.76058,0,0,0.000
12,22155,0.19141,-6.62891,7.39453,0.87426758,-0.33819580,0.11730957,-0.32788086,-41.94180,-0.95437,-40.74980,0,0,0.000
13,22166,0.19141,-6.58984,7.35156,0.87426758,-0.33819580,0.11718750,-0.32781982,-41.93822,-0.96430,-40.73901,0,0,0.000
14,22177,0.19141,-6.51172,7.46875,0.87426758,-0.33825684,0.11718750,-0.32781982,-41.94434,-0.96656,-40.73809,0,0,0.000
15,22185,0.19141,-6.51172,7.43359,0.87432861,-0.33825684,0.11718750,-0.32775879,-41.94294,-0.96331,-40.72970,0,0,0.000
16,22195,0.15234,-6.51172,7.39062,0.87426758,-0.33825684,0.11724854,-0.32781982,-41.94660,-0.96043,-40.74042,0,0,0.000
17,22206,0.19141,-6.62891,7.43359,0.87426758,-0.33825684,0.11730957,-0.32788086,-41.94793,-0.95663,-40.74887,0,0,0.000
18,22217,0.19141,-6.55078,7.42969,0.87420654,-0.33825684,0.11737061,-0.32788086,-41.95251,-0.95142,-40.75345,0,0,0.000
19,22225,0.19141,-6.55078,7.39062,0.87420654,-0.33819580,0.11749268,-0.32800293,-41.94905,-0.94156,-40.77129,0,0,0.000
20,22235,0.19141,-6.58984,7.31250,0.87420654,-0.33813477,0.11755371,-0.32806396,-41.94425,-0.93551,-40.78068,0,0,0.000
21,22245,0.15234,-6.58984,7.23438,0.87420654,-0.33801270,0.11761475,-0.32812500,-41.93333,-0.92719,-40.79098,0,0,0.000
22,22257,0.15234,-6.58984,7.31641,0.87426758,-0.33789062,0.11755371,-0.32818604,-41.91557,-0.93021,-40.79436,0,0,0.000
23,22266,0.15234,-6.55078,7.39453,0.87432861,-0.33770752,0.11743164,-0.32818604,-41.89033,-0.93478,-40.79022,0,0,0.000
24,22275,0.19141,-6.62891,7.46875,0.87438965,-0.33764648,0.11730957,-0.32818604,-41.87737,-0.94386,-40.78423,0,0,0.000
25,22285,0.23047,-6.62891,7.50781,0.87438965,-0.33776855,0.11730957,-0.32806396,-41.89146,-0.94372,-40.77013,0,0,0.000
26,22296,0.15234,-6.62891,7.42969,0.87432861,-0.33789062,0.11730957,-0.32800293,-41.90698,-0.94683,-40.76441,0,0,0.000
27,22305,0.15234,-6.58984,7.39062,0.87432861,-0.33795166,0.11737061,-0.32794189,-41.91628,-0.94063,-40.75969,0,0,0.000
28,22315,0.19141,-6.51172,7.31250,0.87432861,-0.33807373,0.11743164,-0.32781982,-41.93264,-0.93435,-40.74791,0,0,0.000
29,22325,0.15234,-6.47266,7.27344,0.87426758,-0.33819580,0.11737061,-0.32781982,-41.94497,-0.94592,-40.74600,0,0,0.000
30,22336,0.23047,-6.62891,7.35156,0.87426758,-0.33819580,0.11730957,-0.32781982,-41.94272,-0.95204,-40.74367,0,0,0.000
31,22345,0.23047,-6.58984,7.43359,0.87432861,-0.33819580,0.11724854,-0.32781982,-41.93814,-0.95725,-40.73908,0,0,0.000
32,22355,0.23047,-6.58984,7.46875,0.87426758,-0.33819580,0.11724854,-0.32788086,-41.93955,-0.96050,-40.74747,0,0,0.000
33,22365,0.19141,-6.55078,7.42969,0.87426758,-0.33819580,0.11724854,-0.32794189,-41.93862,-0.96283,-40.75360,0,0,0.000
34,22376,0.15234,-6.58984,7.35547,0.87426758,-0.33819580,0.11724854,-0.32800293,-41.93769,-0.96516,-40.75973,0,0,0.000
35,22385,0.15234,-6.58984,7.39062,0.87426758,-0.33807373,0.11724854,-0.32800293,-41.92544,-0.96065,-40.76157,0,0,0.000
36,22395,0.15234,-6.55078,7.39453,0.87426758,-0.33801270,0.11730957,-0.32806396,-41.92064,-0.95459,-40.77095,0,0,0.000
37,22405,0.11328,-6.62891,7.39062,0.87426758,-0.33801270,0.11737061,-0.32806396,-41.92290,-0.94846,-40.77328,0,0,0.000
38,22416,0.19141,-6.58984,7.43359,0.87426758,-0.33801270,0.11749268,-0.32806396,-41.92741,-0.93620,-40.77794,0,0,0.000
39,22425,0.19141,-6.55078,7.31641,0.87426758,-0.33801270,0.11755371,-0.32806396,-41.92966,-0.93007,-40.78027,0,0,0.000
40,22435,0.11328,-6.51172,7.23438,0.87420654,-0.33807373,0.11755371,-0.32806396,-41.93812,-0.93325,-40.78160,0,0,0.000
41,22447,0.19141,-6.58984,7.23828,0.87420654,-0.33813477,0.11743164,-0.32800293,-41.94066,-0.94544,-40.76989,0,0,0.000
42,22456,0.19141,-6.55078,7.35547,0.87426758,-0.33813477,0.11724854,-0.32794189,-41.93249,-0.96057,-40.75452,0,0,0.000
43,22465,0.23047,-6.51172,7.39453,0.87432861,-0.33819580,0.11700439,-0.32794189,-41.92728,-0.98642,-40.74204,0,0,0.000
44,22475,0.23047,-6.58984,7.43359,0.87432861,-0.33819580,0.11676025,-0.32788086,-41.91919,-1.00862,-40.72660,0,0,0.000
45,22487,0.15234,-6.66406,7.50781,0.87438965,-0.33813477,0.11657715,-0.32788086,-41.90398,-1.02383,-40.71830,0,0,0.000
46,22495,0.19141,-6.55078,7.58984,0.87445068,-0.33807373,0.11651611,-0.32788086,-41.89327,-1.02679,-40.71465,0,0,0.000
47,22505,0.23047,-6.55078,7.54688,0.87445068,-0.33801270,0.11657715,-0.32788086,-41.88939,-1.01841,-40.71790,0,0,0.000
48,22515,0.15234,-6.58984,7.42969,0.87445068,-0.33789062,0.11676025,-0.32794189,-41.88296,-0.99783,-40.73285,0,0,0.000
49,22527,0.19141,-6.55078,7.35547,0.87445068,-0.33789062,0.11688232,-0.32794189,-41.88747,-0.98557,-40.73750,0,0,0.000
50,22535,0.19141,-6.55078,7.23438,0.87445068,-0.33782959,0.11688232,-0.32800293,-41.88041,-0.98564,-40.74455,0,0,0.000
51,22545,0.15234,-6.51172,7.23438,0.87445068,-0.33789062,0.11682129,-0.32794189,-41.88521,-0.99170,-40.73517,0,0,0.000
52,22555,0.15234,-6.58984,7.23438,0.87445068,-0.33795166,0.11663818,-0.32794189,-41.88459,-1.01235,-40.72728,0,0,0.000
53,22566,0.23047,-6.55078,7.42969,0.87445068,-0.33789062,0.11651611,-0.32794189,-41.87395,-1.02236,-40.72356,0,0,0.000
54,22575,0.19141,-6.62891,7.46875,0.87451172,-0.33782959,0.11645508,-0.32794189,-41.86324,-1.02532,-40.71991,0,0,0.000
55,22585,0.19141,-6.62891,7.55078,0.87457275,-0.33770752,0.11639404,-0.32794189,-41.84640,-1.02602,-40.71718,0,0,0.000
56,22595,0.23047,-6.62891,7.58594,0.87457275,-0.33764648,0.11645508,-0.32794189,-41.84252,-1.01764,-40.72043,0,0,0.000
57,22606,0.19141,-6.55078,7.47266,0.87457275,-0.33758545,0.11657715,-0.32800293,-41.83996,-1.00544,-40.73212,0,0,0.000
58,22615,0.19141,-6.51172,7.39453,0.87457275,-0.33752441,0.11676025,-0.32806396,-41.83968,-0.98711,-40.74614,0,0,0.000
59,22624,0.19141,-6.55078,7.27344,0.87451172,-0.33758545,0.11682129,-0.32806396,-41.85039,-0.98416,-40.74980,0,0,0.000
60,22635,0.11328,-6.55078,7.20312,0.87451172,-0.33758545,0.11682129,-0.32806396,-41.85039,-0.98416,-40.74980,0,0,0.000
61,22646,0.11328,-6.47266,7.23438,0.87451172,-0.33764648,0.11676025,-0.32806396,-41.85426,-0.99254,-40.74655,0,0,0.000
62,22655,0.19141,-6.55078,7.31641,0.87451172,-0.33776855,0.11657715,-0.32800293,-41.86069,-1.01312,-40.73160,0,0,0.000
63,22665,0.15234,-6.62891,7.42969,0.87451172,-0.33782959,0.11639404,-0.32788086,-41.86192,-1.02912,-40.71145,0,0,0.000
64,22675,0.23047,-6.58984,7.50781,0.87457275,-0.33782959,0.11627197,-0.32788086,-41.85509,-1.04047,-40.70455,0,0,0.000
65,22686,0.23047,-6.62891,7.50781,0.87457275,-0.33789062,0.11621094,-0.32781982,-41.85989,-1.04653,-40.69517,0,0,0.000
66,22695,0.23047,-6.58984,7.46875,0.87457275,-0.33782959,0.11627197,-0.32781982,-41.85601,-1.03814,-40.69842,0,0,0.000
67,22704,0.19141,-6.51172,7.39453,0.87457275,-0.33782959,0.11633301,-0.32781982,-41.85826,-1.03201,-40.70074,0,0,0.000
68,22714,0.19141,-6.55078,7.35547,0.87457275,-0.33789062,0.11633301,-0.32781982,-41.86440,-1.03426,-40.69982,0,0,0.000
69,22725,0.19141,-6.51172,7.35156,0.87451172,-0.33789062,0.11639404,-0.32781982,-41.86897,-1.02905,-40.70439,0,0,0.000
70,22734,0.23047,-6.55078,7.35547,0.87451172,-0.33782959,0.11639404,-0.32788086,-41.86192,-1.02912,-40.71145,0,0,0.000
71,22744,0.23047,-6.62891,7.43359,0.87457275,-0.33776855,0.11639404,-0.32788086,-41.85346,-1.02595,-40.71012,0,0,0.000
72,22754,0.19141,-6.55078,7.42969,0.87451172,-0.33776855,0.11645508,-0.32788086,-41.85803,-1.02074,-40.71469,0,0,0.000
73,22765,0.19141,-6.62891,7.46875,0.87457275,-0.33776855,0.11645508,-0.32788086,-41.85571,-1.01982,-40.71244,0,0,0.000
74,22774,0.19141,-6.58984,7.43359,0.87451172,-0.33776855,0.11651611,-0.32794189,-41.85936,-1.01693,-40.72315,0,0,0.000
75,22784,0.19141,-6.51172,7.35156,0.87451172,-0.33776855,0.11651611,-0.32794189,-41.85936,-1.01693,-40.72315,0,0,0.000
76,22794,0.15234,-6.55078,7.27734,0.87451172,-0.33782959,0.11651611,-0.32794189,-41.86549,-1.01918,-40.72223,0,0,0.000
77,22805,0.19141,-6.58984,7.35156,0.87451172,-0.33782959,0.11639404,-0.32788086,-41.86192,-1.02912,-40.71145,0,0,0.000
78,22814,0.19141,-6.62891,7.39453,0.87457275,-0.33782959,0.11633301,-0.32781982,-41.85826,-1.03201,-40.70074,0,0,0.000
79,22824,0.23047,-6.58984,7.43359,0.87457275,-0.33776855,0.11627197,-0.32781982,-41.84988,-1.03589,-40.69934,0,0,0.000
80,22834,0.23047,-6.55078,7.47266,0.87463379,-0.33770752,0.11627197,-0.32781982,-41.84142,-1.03272,-40.69802,0,0,0.000
81,22845,0.19141,-6.55078,7.42969,0.87469482,-0.33758545,0.11627197,-0.32781982,-41.82683,-1.02729,-40.69761,0,0,0.000
82,22854,0.19141,-6.55078,7.42969,0.87469482,-0.33764648,0.11621094,-0.32781982,-41.83072,-1.03568,-40.69437,0,0,0.000
83,22864,0.19141,-6.58984,7.43359,0.87463379,-0.33770752,0.11627197,-0.32781982,-41.84142,-1.03272,-40.69802,0,0,0.000
84,22874,0.19141,-6.55078,7.31641,0.87463379,-0.33770752,0.11621094,-0.32781982,-41.83917,-1.03885,-40.69569,0,0,0.000
85,22885,0.19141,-6.55078,7.39062,0.87463379,-0.33770752,0.11614990,-0.32781982,-41.83692,-1.04499,-40.69337,0,0,0.000
86,22894,0.19141,-6.58984,7.39453,0.87463379,-0.33764648,0.11614990,-0.32788086,-41.82986,-1.04505,-40.70044,0,0,0.000
87,22904,0.19141,-6.62891,7.39453,0.87463379,-0.33764648,0.11608887,-0.32788086,-41.82761,-1.05119,-40.69811,0,0,0.000
88,22916,0.23047,-6.58984,7.46875,0.87469482,-0.33758545,0.11608887,-0.32788086,-41.81916,-1.04801,-40.69678,0,0,0.000
89,22924,0.23047,-6.62891,7.46875,0.87469482,-0.33764648,0.11614990,-0.32781982,-41.82847,-1.04181,-40.69205,0,0,0.000
90,22934,0.23047,-6.58984,7.43359,0.87469482,-0.33758545,0.11627197,-0.32781982,-41.82683,-1.02729,-40.69761,0,0,0.000
91,22944,0.19141,-6.51172,7.43359,0.87463379,-0.33758545,0.11639404,-0.32788086,-41.83273,-1.01827,-40.71064,0,0,0.000
92,22956,0.15234,-6.55078,7.31250,0.87463379,-0.33752441,0.11639404,-0.32788086,-41.82660,-1.01602,-40.71156,0,0,0.000
93,22964,0.11328,-6.51172,7.35547,0.87463379,-0.33752441,0.11639404,-0.32794189,-41.82568,-1.01834,-40.71769,0,0,0.000
94,22974,0.15234,-6.51172,7.35547,0.87463379,-0.33752441,0.11639404,-0.32794189,-41.82568,-1.01834,-40.71769,0,0,0.000
95,22984,0.23047,-6.58984,7.43359,0.87463379,-0.33752441,0.11639404,-0.32794189,-41.82568,-1.01834,-40.71769,0,0,0.000
96,22995,0.19141,-6.55078,7.35547,0.87463379,-0.33752441,0.11639404,-0.32794189,-41.82568,-1.01834,-40.71769,0,0,0.000
97,23004,0.19141,-6.58984,7.39453,0.87463379,-0.33752441,0.11639404,-0.32794189,-41.82568,-1.01834,-40.71769,0,0,0.000
98,23014,0.23047,-6.62891,7.46875,0.87463379,-0.33752441,0.11639404,-0.32794189,-41.82568,-1.01834,-40.71769,0,0,0.000
99,23024,0.23047,-6.55078,7.51172,0.87463379,-0.33752441,0.11639404,-0.32788086,-41.82660,-1.01602,-40.71156,0,0,0.000
100,23035,0.15234,-6.58984,7.42969,0.87457275,-0.33758545,0.11651611,-0.32794189,-41.83863,-1.00925,-40.72367,0,0,0.000
101,23044,0.15234,-6.58984,7.35547,0.87457275,-0.33764648,0.11657715,-0.32788086,-41.84795,-1.00305,-40.71893,0,0,0.000
102,23053,0.15234,-6.55078,7.35156,0.87457275,-0.33776855,0.11663818,-0.32788086,-41.86246,-1.00142,-40.71941,0,0,0.000
103,23064,0.15234,-6.47266,7.31641,0.87451172,-0.33782959,0.11657715,-0.32781982,-41.86959,-1.00841,-40.71228,0,0,0.000
104,23075,0.15234,-6.58984,7.31641,0.87451172,-0.33789062,0.11651611,-0.32781982,-41.87347,-1.01679,-40.70903,0,0,0.000
105,23084,0.19141,-6.55078,7.35547,0.87457275,-0.33789062,0.11639404,-0.32775879,-41.86757,-1.02581,-40.69601,0,0,0.000
106,23093,0.19141,-6.55078,7.35547,0.87457275,-0.33789062,0.11633301,-0.32775879,-41.86532,-1.03194,-40.69368,0,0,0.000
107,23104,0.26953,-6.58984,7.39062,0.87457275,-0.33789062,0.11633301,-0.32775879,-41.86532,-1.03194,-40.69368,0,0,0.000
108,23115,0.23047,-6.62891,7.50781,0.87457275,-0.33782959,0.11633301,-0.32775879,-41.85919,-1.02969,-40.69461,0,0,0.000
109,23124,0.23047,-6.58984,7.50781,0.87457275,-0.33776855,0.11639404,-0.32781982,-41.85438,-1.02363,-40.70399,0,0,0.000
110,23133,0.19141,-6.58984,7.43359,0.87457275,-0.33770752,0.11657715,-0.32788086,-41.85408,-1.00530,-40.71801,0,0,0.000
111,23144,0.15234,-6.58984,7.42969,0.87451172,-0.33770752,0.11669922,-0.32794189,-41.85999,-0.99628,-40.73104,0,0,0.000
112,23155,0.15234,-6.51172,7.27344,0.87451172,-0.33770752,0.11682129,-0.32800293,-41.86357,-0.98634,-40.74182,0,0,0.000
113,23163,0.11328,-6.55078,7.20312,0.87451172,-0.33764648,0.11682129,-0.32806396,-41.85652,-0.98641,-40.74887,0,0,0.000
114,23173,0.15234,-6.55078,7.20312,0.87451172,-0.33758545,0.11669922,-0.32806396,-41.84587,-0.99642,-40.74515,0,0,0.000
115,23184,0.19141,-6.58984,7.27734,0.87457275,-0.33758545,0.11645508,-0.32800293,-41.83546,-1.01770,-40.72748,0,0,0.000
116,23194,0.19141,-6.66406,7.51172,0.87463379,-0.33770752,0.11627197,-0.32788086,-41.84050,-1.03504,-40.70415,0,0,0.000
117,23203,0.23047,-6.66406,7.65625,0.87463379,-0.33776855,0.11621094,-0.32775879,-41.84623,-1.03878,-40.68864,0,0,0.000
118,23213,0.23047,-6.55078,7.58984,0.87463379,-0.33782959,0.11627197,-0.32763672,-41.85646,-1.03025,-40.67777,0,0,0.000
119,23223,0.19141,-6.55078,7.47266,0.87463379,-0.33789062,0.11639404,-0.32763672,-41.86710,-1.02024,-40.68149,0,0,0.000
120,23234,0.19141,-6.55078,7.35547,0.87463379,-0.33782959,0.11651611,-0.32763672,-41.86546,-1.00572,-40.68706,0,0,0.000
121,23243,0.15234,-6.51172,7.31641,0.87463379,-0.33782959,0.11657715,-0.32763672,-41.86771,-0.99959,-40.68938,0,0,0.000
122,23253,0.15234,-6.51172,7.35547,0.87457275,-0.33776855,0.11657715,-0.32775879,-41.86206,-1.00291,-40.70482,0,0,0.000
123,23263,0.23047,-6.55078,7.39062,0.87457275,-0.33776855,0.11657715,-0.32781982,-41.86114,-1.00523,-40.71095,0,0,0.000
124,23274,0.19141,-6.58984,7.39453,0.87457275,-0.33776855,0.11651611,-0.32788086,-41.85796,-1.01369,-40.71477,0,0,0.000
125,23283,0.19141,-6.62891,7.43359,0.87451172,-0.33782959,0.11645508,-0.32788086,-41.86417,-1.02299,-40.71377,0,0,0.000
126,23293,0.19141,-6.62891,7.39453,0.87457275,-0.33782959,0.11645508,-0.32788086,-41.86184,-1.02207,-40.71152,0,0,0.000
127,23303,0.15234,-6.55078,7.39453,0.87457275,-0.33776855,0.11645508,-0.32781982,-41.85664,-1.01750,-40.70631,0,0,0.000
128,23313,0.19141,-6.55078,7.35547,0.87457275,-0.33776855,0.11645508,-0.32781982,-41.85664,-1.01750,-40.70631,0,0,0.000
129,23323,0.19141,-6.51172,7.35156,0.87457275,-0.33782959,0.11639404,-0.32781982,-41.86052,-1.02588,-40.70306,0,0,0.000
130,23333,0.19141,-6.55078,7.42969,0.87457275,-0.33782959,0.11633301,-0.32781982,-41.85826,-1.03201,-40.70074,0,0,0.000
131,23343,0.19141,-6.66406,7.42969,0.87457275,-0.33789062,0.11627197,-0.32781982,-41.86214,-1.04039,-40.69749,0,0,0.000
132,23353,0.19141,-6.55078,7.42969,0.87457275,-0.33789062,0.11633301,-0.32781982,-41.86440,-1.03426,-40.69982,0,0,0.000
133,23363,0.19141,-6.55078,7.39062,0.87457275,-0.33782959,0.11639404,-0.32781982,-41.86052,-1.02588,-40.70306,0,0,0.000
134,23373,0.15234,-6.58984,7.39062,0.87457275,-0.33782959,0.11645508,-0.32781982,-41.86276,-1.01975,-40.70539,0,0,0.000
135,23385,0.19141,-6.55078,7.35547,0.87457275,-0.33776855,0.11645508,-0.32781982,-41.85664,-1.01750,-40.70631,0,0,0.000
136,23393,0.19141,-6.58984,7.39453,0.87457275,-0.33776855,0.11645508,-0.32788086,-41.85571,-1.01982,-40.71244,0,0,0.000
137,23403,0.15234,-6.51172,7.39062,0.87457275,-0.33782959,0.11639404,-0.32788086,-41.85959,-1.02820,-40.70920,0,0,0.000
138,23413,0.19141,-6.55078,7.42969,0.87451172,-0.33789062,0.11639404,-0.32788086,-41.86805,-1.03138,-40.71052,0,0,0.000
139,23425,0.19141,-6.58984,7.46875,0.87451172,-0.33789062,0.11633301,-0.32788086,-41.86580,-1.03751,-40.70820,0,0,0.000
140,23433,0.19141,-6.62891,7.43359,0.87451172,-0.33789062,0.11639404,-0.32788086,-41.86805,-1.03138,-40.71052,0,0,0.000
141,23443,0.19141,-6.62891,7.39453,0.87451172,-0.33782959,0.11639404,-0.32794189,-41.86099,-1.03145,-40.71758,0,0,0.000
142,23453,0.19141,-6.55078,7.35547,0.87451172,-0.33789062,0.11645508,-0.32788086,-41.87030,-1.02524,-40.71284,0,0,0.000
143,23463,0.15234,-6.58984,7.27344,0.87445068,-0.33801270,0.11645508,-0.32788086,-41.88489,-1.03067,-40.71325,0,0,0.000
144,23473,0.19141,-6.55078,7.31641,0.87451172,-0.33801270,0.11639404,-0.32781982,-41.88123,-1.03355,-40.70254,0,0,0.000
145,23483,0.19141,-6.58984,7.39453,0.87451172,-0.33801270,0.11633301,-0.32781982,-41.87899,-1.03969,-40.70022,0,0,0.000
146,23493,0.19141,-6.62891,7.46875,0.87451172,-0.33801270,0.11627197,-0.32775879,-41.87766,-1.04350,-40.69176,0,0,0.000
147,23504,0.23047,-6.55078,7.47266,0.87457275,-0.33801270,0.11621094,-0.32775879,-41.87309,-1.04870,-40.68719,0,0,0.000
148,23513,0.23047,-6.58984,7.46875,0.87457275,-0.33795166,0.11621094,-0.32775879,-41.86695,-1.04645,-40.68811,0,0,0.000
149,23523,0.23047,-6.58984,7.50781,0.87457275,-0.33789062,0.11627197,-0.32775879,-41.86307,-1.03807,-40.69136,0,0,0.000
150,23533,0.23047,-6.55078,7.42969,0.87457275,-0.33782959,0.11627197,-0.32781982,-41.85601,-1.03814,-40.69842,0,0,0.000
151,23544,0.19141,-6.55078,7.39062,0.87457275,-0.33776855,0.11633301,-0.32788086,-41.85120,-1.03208,-40.70780,0,0,0.000
152,23552,0.15234,-6.55078,7.31250,0.87457275,-0.33770752,0.11639404,-0.32788086,-41.84732,-1.02370,-40.71104,0,0,0.000
153,23562,0.15234,-6.51172,7.27344,0.87457275,-0.33764648,0.11633301,-0.32794189,-41.83802,-1.02990,-40.71578,0,0,0.000
154,23572,0.15234,-6.55078,7.27734,0.87457275,-0.33770752,0.11627197,-0.32794189,-41.84190,-1.03828,-40.71254,0,0,0.000
155,23584,0.19141,-6.58984,7.39453,0.87457275,-0.33782959,0.11614990,-0.32788086,-41.85059,-1.05273,-40.69991,0,0,0.000
156,23592,0.19141,-6.62891,7.39453,0.87457275,-0.33789062,0.11596680,-0.32788086,-41.84997,-1.07338,-40.69202,0,0,0.000
157,23602,0.19141,-6.62891,7.39453,0.87457275,-0.33789062,0.11590576,-0.32781982,-41.84865,-1.07719,-40.68356,0,0,0.000
158,23612,0.15234,-6.58984,7.42969,0.87463379,-0.33795166,0.11584473,-0.32775879,-41.85114,-1.08233,-40.67193,0,0,0.000
159,23624,0.19141,-6.47266,7.35156,0.87463379,-0.33795166,0.11578369,-0.32769775,-41.84982,-1.08614,-40.66348,0,0,0.000
160,23632,0.23047,-6.58984,7.31250,0.87463379,-0.33801270,0.11560059,-0.32769775,-41.84921,-1.10679,-40.65559,0,0,0.000
161,23643,0.23047,-6.62891,7.39453,0.87463379,-0.33819580,0.11547852,-0.32763672,-41.86405,-1.12348,-40.64202,0,0,0.000
162,23653,0.23047,-6.58984,7.46875,0.87457275,-0.33843994,0.11535645,-0.32757568,-41.88735,-1.14333,-40.62978,0,0,0.000
163,23663,0.15234,-6.62891,7.35547,0.87457275,-0.33856201,0.11523438,-0.32751465,-41.89606,-1.15776,-40.61715,0,0,0.000
164,23673,0.15234,-6.62891,7.23438,0.87457275,-0.33868408,0.11511230,-0.32739258,-41.90571,-1.16987,-40.59837,0,0,0.000
165,23682,0.19141,-6.58984,7.12500,0.87463379,-0.33874512,0.11474609,-0.32727051,-41.89793,-1.20335,-40.56898,0,0,0.000
166,23692,0.23047,-6.55078,7.16797,0.87475586,-0.33874512,0.11419678,-0.32708740,-41.87594,-1.24975,-40.52520,0,0,0.000
167,23703,0.26953,-6.55078,7.20312,0.87487793,-0.33892822,0.11346436,-0.32684326,-41.86663,-1.31897,-40.46553,0,0,0.000
168,23712,0.30469,-6.70312,7.20703,0.87506104,-0.33898926,0.11248779,-0.32659912,-41.83389,-1.40736,-40.39626,0,0,0.000
169,23722,0.00000,-6.78125,7.35156,0.87542725,-0.33892822,0.11132812,-0.32611084,-41.77911,-1.49773,-40.29071,0,0,0.000
170,23732,0.03906,-6.85547,7.58984,0.87585449,-0.33886719,0.11022949,-0.32550049,-41.72628,-1.57649,-40.17305,0,0,0.000
171,23744,-0.03906,-7.27734,8.23438,0.87628174,-0.33843994,0.10961914,-0.32495117,-41.65340,-1.59520,-40.08569,0,0,0.000
172,23753,0.42188,-6.70312,8.08203,0.87677002,-0.33746338,0.10943604,-0.32464600,-41.53453,-1.55935,-40.04531,0,0,0.000
173,23762,0.26953,-6.82031,7.92969,0.87695312,-0.33691406,0.10949707,-0.32470703,-41.47349,-1.53282,-40.05553,0,0,0.000
174,23772,0.53516,-6.82031,7.73438,0.87713623,-0.33636475,0.10986328,-0.32464600,-41.42537,-1.47091,-40.06487,0,0,0.000
175,23783,0.19141,-6.20703,6.70312,0.87738037,-0.33563232,0.10986328,-0.32470703,-41.34135,-1.44297,-40.07328,0,0,0.000
176,23792,0.11328,-6.12891,6.97266,0.87768555,-0.33471680,0.10943604,-0.32495117,-41.21830,-1.45742,-40.08468,0,0,0.000
177,23802,0.23047,-6.20703,7.39453,0.87805176,-0.33355713,0.10888672,-0.32537842,-41.06111,-1.48122,-40.11152,0,0,0.000
178,23812,0.42188,-6.08984,7.31250,0.87841797,-0.33239746,0.10827637,-0.32586670,-40.90078,-1.51337,-40.14233,0,0,0.000
179,23823,0.38281,-6.08984,7.42969,0.87860107,-0.33135986,0.10760498,-0.32659912,-40.75364,-1.56783,-40.20047,0,0,0.000
180,23832,0.49609,-6.35938,7.93359,0.87860107,-0.33068848,0.10711670,-0.32739258,-40.65597,-1.62200,-40.27281,0,0,0.000
181,23842,0.46094,-6.62891,8.19531,0.87841797,-0.33038330,0.10705566,-0.32836914,-40.61482,-1.65576,-40.38061,0,0,0.000
182,23854,0.19141,-6.97266,8.57812,0.87799072,-0.33056641,0.10754395,-0.32910156,-40.65579,-1.64658,-40.48547,0,0,0.000
183,23862,-0.07812,-7.20312,8.35547,0.87756348,-0.33093262,0.10839844,-0.32965088,-40.73152,-1.60048,-40.58255,0,0,0.000
184,23872,-0.19141,-7.58594,8.81250,0.87731934,-0.33081055,0.10961914,-0.32995605,-40.76849,-1.48777,-40.66927,0,0,0.000
185,23882,0.07812,-8.00781,9.46484,0.87750244,-0.32983398,0.11120605,-0.32989502,-40.72268,-1.28663,-40.72975,0,0,0.000
186,23893,-0.46094,-5.66797,9.92188,0.87780762,-0.32843018,0.11328125,-0.32971191,-40.64940,-1.01403,-40.79760,0,0,0.000
187,23902,-0.23047,-6.78125,10.10938,0.87786865,-0.32702637,0.11596680,-0.33007812,-40.60028,-0.70368,-40.95216,0,0,0.000
188,23912,0.15234,-10.61328,10.41797,0.87835693,-0.32501221,0.11968994,-0.32946777,-40.52760,-0.22351,-41.03917,0,0,0.000
189,23922,0.61328,-10.03516,11.64062,0.87921143,-0.32238770,0.12426758,-0.32806396,-40.42374,0.40034,-41.07193,0,0,0.000
190,23933,0.88281,-10.34375,11.76172,0.88006592,-0.32012939,0.13031006,-0.32568359,-40.42548,1.19413,-41.05540,0,0,0.000
191,23942,0.84375,-10.03516,11.72266,0.88085938,-0.31829834,0.13787842,-0.32214355,-40.54473,2.16784,-40.97726,0,0,0.000
192,23951,0.65234,-10.60938,11.25781,0.88195801,-0.31604004,0.14959717,-0.31597900,-40.79720,3.67838,-40.79043,0,0,0.000
193,23962,0.34375,-9.69141,10.57422,0.88330078,-0.31353760,0.16204834,-0.30859375,-41.05107,5.32252,-40.50913,0,0,0.000
194,23973,-0.19141,-8.77344,8.46484,0.88464355,-0.31097412,0.17462158,-0.30041504,-41.30236,7.01378,-40.16012,0,0,0.000
195,23982,-0.84375,-8.39062,7.50781,0.88616943,-0.30828857,0.18725586,-0.29089355,-41.53506,8.77294,-39.67825,0,0,0.000
196,23991,-1.03516,-7.27734,8.69922,0.88757324,-0.30627441,0.19854736,-0.28106689,-41.77456,10.38617,-39.11550,0,0,0.000
197,24002,-0.76562,-6.35938,6.70703,0.88842773,-0.30621338,0.20843506,-0.27099609,-42.16513,11.79455,-38.48717,0,0,0.000
198,24014,-0.61328,-6.85547,6.43750,0.88903809,-0.30718994,0.21624756,-0.26165771,-42.57365,12.92947,-37.85572,0,0,0.000
199,24022,-0.53516,-6.70312,6.01562,0.88970947,-0.30822754,0.22326660,-0.25201416,-42.94331,14.00121,-37.16051,0,0,0.000
200,24031,-0.61328,-6.04688,5.70703,0.89050293,-0.30908203,0.22900391,-0.24298096,-43.22624,14.93083,-36.46805,0,0,0.000
201,24042,-0.76562,-5.47656,5.44141,0.89129639,-0.30981445,0.23376465,-0.23443604,-43.44821,15.75020,-35.78210,0,0,0.000
202,24053,-0.91797,-4.82812,4.75000,0.89208984,-0.31042480,0.23748779,-0.22668457,-43.60913,16.43881,-35.12950,0,0,0.000
203,24062,-0.76562,-4.83203,4.55859,0.89306641,-0.31097412,0.24060059,-0.21887207,-43.72358,17.07349,-34.43427,0,0,0.000
204,24071,-0.91797,-4.28906,4.44922,0.89398193,-0.31121826,0.24285889,-0.21203613,-43.77207,17.59242,-33.79993,0,0,0.000
205,24082,-0.88281,-3.37109,4.29297,0.89459229,-0.31225586,0.24438477,-0.20623779,-43.88771,17.96488,-33.25196,0,0,0.000
206,24093,-0.65234,-4.33203,4.06250,0.89483643,-0.31317139,0.24505615,-0.20275879,-43.98237,18.15462,-32.91728,0,0,0.000
207,24101,-0.61328,-4.25391,3.83203,0.89532471,-0.31329346,0.24578857,-0.19952393,-43.98516,18.36734,-32.59796,0,0,0.000
208,24111,-0.61328,-4.06250,3.83203,0.89599609,-0.31280518,0.24639893,-0.19647217,-43.91060,18.58067,-32.28154,0,0,0.000
209,24122,-0.69141,-3.75000,3.29297,0.89685059,-0.31256104,0.24615479,-0.19329834,-43.81872,18.70500,-31.90520,0,0,0.000
210,24132,-0.42188,-3.48438,4.29297,0.89788818,-0.31262207,0.24462891,-0.19049072,-43.70351,18.67348,-31.50039,0,0,0.000
211,24141,-0.38281,-3.64062,4.06641,0.89923096,-0.31170654,0.24237061,-0.18817139,-43.44760,18.57878,-31.09547,0,0,0.000
212,24151,-0.38281,-4.40625,4.28906,0.90130615,-0.30938721,0.23944092,-0.18603516,-42.98732,18.45144,-30.64419,0,0,0.000
213,24161,-0.38281,-4.67188,4.71484,0.90386963,-0.30578613,0.23608398,-0.18383789,-42.35515,18.32113,-30.14299,0,0,0.000
214,24172,-0.30469,-4.67188,4.75000,0.90661621,-0.30218506,0.23229980,-0.18090820,-41.69675,18.17320,-29.54034,0,0,0.000
215,24181,-0.57422,-3.79297,4.82812,0.90966797,-0.29919434,0.22766113,-0.17645264,-41.05237,17.97558,-28.73321,0,0,0.000
216,24194,-0.65234,-2.94922,4.90234,0.91271973,-0.29687500,0.22155762,-0.17236328,-40.43744,17.58394,-27.90867,0,0,0.000
217,24202,-0.42188,-2.67969,5.32422,0.91595459,-0.29553223,0.21289062,-0.16839600,-39.84534,16.88585,-26.99361,0,0,0.000
218,24211,0.03906,-2.91016,6.16406,0.91906738,-0.29565430,0.20239258,-0.16418457,-39.37170,15.95825,-25.99907,0,0,0.000
219,24221,-0.07812,-3.10156,6.24219,0.92132568,-0.29736328,0.19146729,-0.16137695,-39.11788,14.88267,-25.18357,0,0,0.000
220,24231,0.07812,-3.71484,6.85156,0.92370605,-0.29962158,0.17761230,-0.15948486,-38.85754,13.44759,-24.35433,0,0,0.000
221,24241,0.19141,-4.32812,7.20312,0.92584229,-0.30151367,0.16363525,-0.15863037,-38.59098,11.96624,-23.64775,0,0,0.000
222,24251,0.91797,-5.40234,9.12109,0.92767334,-0.30273438,0.14947510,-0.15954590,-38.28407,10.41192,-23.13987,0,0,0.000
223,24261,1.03516,-6.35938,9.46094,0.92913818,-0.30334473,0.13745117,-0.16058350,-37.99392,9.09075,-22.74665,0,0,0.000
224,24274,1.07422,-7.12500,10.10938,0.93084717,-0.30291748,0.12646484,-0.16058350,-37.61839,7.94079,-22.28440,0,0,0.000
225,24281,0.80469,-7.16406,10.34766,0.93267822,-0.30078125,0.11700439,-0.16094971,-37.10091,6.97518,-21.92515,0,0,0.000
226,24291,-0.19141,-7.96875,10.14844,0.93481445,-0.29687500,0.10864258,-0.16168213,-36.41422,6.14973,-21.64970,0,0,0.000
227,24301,-0.65234,-7.42969,10.00391,0.93731689,-0.29138184,0.10028076,-0.16290283,-35.54866,5.33911,-21.43138,0,0,0.000
228,24311,-1.30078,-7.35547,9.80859,0.93969727,-0.28582764,0.09130859,-0.16424561,-34.67169,4.45693,-21.22053,0,0,0.000
229,24323,-1.99219,-9.07812,11.14844,0.94189453,-0.28106689,0.08044434,-0.16552734,-33.85111,3.35312,-20.95527,0,0,0.000
230,24331,-1.49219,-10.22656,11.80078,0.94360352,-0.27807617,0.06823730,-0.16638184,-33.21793,2.07699,-20.61948,0,0,0.000
231,24341,-0.99609,-10.53516,12.29688,0.94488525,-0.27679443,0.05291748,-0.16680908,-32.73278,0.43877,-20.15242,0,0,0.000
232,24351,-0.69141,-10.11328,12.44531,0.94531250,-0.27764893,0.03698730,-0.16693115,-32.51028,-1.30467,-19.64863,0,0,0.000
233,24363,0.38281,-9.38672,13.10156,0.94482422,-0.28088379,0.01953125,-0.16735840,-32.56111,-3.27397,-19.13302,0,0,0.000
234,24376,1.07422,-9.07812,13.21484,0.94329834,-0.28601074,0.00201416,-0.16851807,-32.85999,-5.31289,-18.69010,0,0,0.000
235,24381,1.07422,-9.07812,13.21484,0.94036865,-0.29351807,-0.01794434,-0.17083740,-33.42852,-7.70326,-18.27698,0,0,0.000
236,24391,2.14453,-8.46484,13.21094,0.93621826,-0.30261230,-0.03820801,-0.17437744,-34.20896,-10.20025,-17.95530,0,0,0.000
237,24402,3.17969,-9.61328,13.44922,0.93072510,-0.31317139,-0.06005859,-0.17913818,-35.17387,-12.94366,-17.67068,0,0,0.000
238,24410,3.29297,-9.03906,13.14453,0.92443848,-0.32373047,-0.08142090,-0.18438721,-36.18660,-15.65929,-17.41536,0,0,0.000
239,24421,3.64062,-10.00000,13.52344,0.91650391,-0.33575439,-0.10449219,-0.19067383,-37.40579,-18.63745,-17.14571,0,0,0.000
240,24432,3.64062,-10.00000,13.52344,0.90820312,-0.34722900,-0.12573242,-0.19702148,-38.62838,-21.41955,-16.89512,0,0,0.000
241,24443,4.71094,-10.19141,13.17188,0.89898682,-0.35845947,-0.14715576,-0.20397949,-39.87492,-24.25802,-16.65281,0,0,0.000
242,24450,4.75000,-10.64844,13.14453,0.88842773,-0.37005615,-0.16717529,-0.21411133,-41.16035,-27.09686,-16.75966,0,0,0.000
243,24460,4.17578,-10.99609,12.02344,0.87829590,-0.38055420,-0.18426514,-0.22326660,-42.37743,-29.57718,-16.83904,0,0,0.000
244,24470,3.56250,-10.68750,12.21875,0.86907959,-0.38970947,-0.19885254,-0.23071289,-43.50020,-31.70117,-16.80927,0,0,0.000
245,24482,1.14844,-8.16016,11.57031,0.86114502,-0.39721680,-0.21112061,-0.23675537,-44.46000,-33.48441,-16.72701,0,0,0.000
246,24490,0.61328,-4.82812,10.80078,0.85321045,-0.40454102,-0.22271729,-0.24243164,-45.43846,-35.18356,-16.59988,0,0,0.000
247,24500,0.80469,-3.94531,9.04297,0.84509277,-0.41247559,-0.23272705,-0.24798584,-46.53445,-36.72264,-16.46343,0,0,0.000
248,24510,0.80469,-3.94531,9.04297,0.83612061,-0.42181396,-0.24163818,-0.25402832,-47.85215,-38.20065,-16.32996,0,0,0.000
249,24521,1.14844,-4.36719,6.44141,0.82562256,-0.43310547,-0.25115967,-0.26019287,-49.52764,-39.79919,-16.02419,0,0,0.000
250,24531,0.46094,-5.21094,6.28516,0.81591797,-0.44335938,-0.25994873,-0.26489258,-51.15393,-41.22810,-15.56055,0,0,0.000
251,24540,0.69141,-5.28516,6.39844,0.80633545,-0.45324707,-0.26849365,-0.26885986,-52.81771,-42.58805,-14.97141,0,0,0.000
252,24550,0.88281,-4.40625,5.55859,0.79681396,-0.46289062,-0.27722168,-0.27203369,-54.55177,-43.91639,-14.21312,0,0,0.000
253,24562,0.46094,-4.28906,4.17578,0.78808594,-0.47100830,-0.28625488,-0.27410889,-56.16669,-45.18594,-13.32038,0,0,0.000
254,24570,0.38281,-3.67578,4.13281,0.77941895,-0.47741699,-0.29797363,-0.27526855,-57.71531,-46.66398,-12.16235,0,0,0.000
255,24580,0.49609,-2.75781,4.75391,0.77197266,-0.48144531,-0.30963135,-0.27624512,-58.94520,-48.08284,-11.07919,0,0,0.000
256,24590,0.49609,-2.75781,4.75391,0.76470947,-0.48486328,-0.32080078,-0.27783203,-60.09596,-49.47103,-10.08891,0,0,0.000
257,24603,-0.23047,0.88281,2.98828,0.75726318,-0.48791504,-0.33184814,-0.28002930,-61.23126,-50.87910,-9.14491,0,0,0.000
258,24610,-0.46094,1.99219,2.21875,0.74877930,-0.49072266,-0.34326172,-0.28405762,-62.35978,-52.45212,-8.35002,0,0,0.000
259,24620,0.30469,0.49609,2.83594,0.74005127,-0.49273682,-0.35449219,-0.28955078,-63.34280,-54.10120,-7.76518,0,0,0.000
260,24630,1.45703,-1.03516,3.71094,0.73095703,-0.49407959,-0.36602783,-0.29589844,-64.26395,-55.84701,-7.25407,0,0,0.000
261,24641,1.72266,-1.64844,3.37109,0.72259521,-0.49548340,-0.37493896,-0.30285645,-65.02157,-57.35425,-7.04227,0,0,0.000
262,24650,1.95312,-2.10547,2.98828,0.71441650,-0.49743652,-0.38153076,-0.31079102,-65.68653,-58.68791,-7.12875,0,0,0.000
263,24660,3.06641,-3.02734,2.91016,0.70709229,-0.49932861,-0.38568115,-0.31933594,-66.08833,-59.80311,-7.59001,0,0,0.000
264,24670,3.06641,-3.02734,2.91016,0.70129395,-0.50103760,-0.38714600,-0.32745361,-66.20048,-60.59540,-8.35435,0,0,0.000
265,24683,3.48438,-3.75391,3.25781,0.69641113,-0.50305176,-0.38623047,-0.33581543,-66.10140,-61.14211,-9.43806,0,0,0.000
266,24690,3.56250,-4.02344,3.02734,0.69342041,-0.50378418,-0.38287354,-0.34460449,-65.38564,-61.42832,-11.10824,0,0,0.000
267,24700,4.29297,-3.33203,2.56641,0.69299316,-0.50268555,-0.37860107,-0.35168457,-64.21970,-61.44403,-12.91022,0,0,0.000
268,24710,4.33203,-2.75781,2.79688,0.69396973,-0.50085449,-0.37390137,-0.35742188,-62.92841,-61.28061,-14.65113,0,0,0.000
269,24721,5.36328,-3.14062,3.17969,0.69610596,-0.49810791,-0.36846924,-0.36267090,-61.41682,-60.96316,-16.49881,0,0,0.000
270,24730,5.66406,-3.79297,3.52344,0.69866943,-0.49578857,-0.36212158,-0.36737061,-60.02060,-60.48762,-18.24948,0,0,0.000
271,24740,5.74219,-4.32812,4.06250,0.70178223,-0.49365234,-0.35430908,-0.37182617,-58.65597,-59.81633,-20.01402,0,0,0.000
272,24750,5.86328,-4.36719,4.17578,0.70532227,-0.49145508,-0.34594727,-0.37591553,-57.34768,-59.03706,-21.70234,0,0,0.000
273,24761,5.21094,-4.13672,5.17188,0.70989990,-0.48822021,-0.33734131,-0.37939453,-55.92422,-58.14272,-23.35768,0,0,0.000
274,24770,5.93750,-3.44922,5.25000,0.71484375,-0.48352051,-0.33081055,-0.38171387,-54.45381,-57.36718,-24.75881,0,0,0.000
275,24780,6.20703,-4.48047,9.72656,0.72320557,-0.47326660,-0.32513428,-0.38372803,-51.94186,-56.46170,-26.58862,0,0,0.000
276,24790,6.20703,-4.48047,9.72656,0.73162842,-0.46221924,-0.31988525,-0.38568115,-49.41178,-55.54898,-28.35098,0,0,0.000
277,24803,7.08984,-1.53125,5.55469,0.74078369,-0.44995117,-0.31231689,-0.38891602,-46.64699,-54.35994,-30.43249,0,0,0.000
278,24810,7.43359,-5.47656,6.70312,0.74884033,-0.43988037,-0.30383301,-0.39172363,-44.48473,-53.09699,-32.13221,0,0,0.000
279,24820,7.51172,-3.94531,7.16406,0.75720215,-0.43011475,-0.29339600,-0.39440918,-42.52748,-51.59208,-33.72315,0,0,0.000
280,24832,8.27344,-0.84375,7.27734,0.76580811,-0.42016602,-0.28161621,-0.39709473,-40.69143,-49.90916,-35.23538,0,0,0.000
281,24840,8.35547,-2.29688,7.16406,0.77496338,-0.40948486,-0.26873779,-0.39935303,-38.92123,-48.04070,-36.62805,0,0,0.000
282,24850,8.35156,-3.10156,7.73828,0.78521729,-0.39636230,-0.25378418,-0.40234375,-36.90551,-45.85098,-38.19522,0,0,0.000
283,24860,8.50000,-3.71484,8.16016,0.79522705,-0.38244629,-0.23803711,-0.40576172,-34.94146,-43.54958,-39.73371,0,0,0.000
284,24870,8.50000,-3.71484,8.16016,0.80487061,-0.36822510,-0.22143555,-0.40942383,-33.11262,-41.14215,-41.19099,0,0,0.000
285,24883,7.62500,-3.94531,9.42188,0.81488037,-0.35211182,-0.20263672,-0.41339111,-31.23935,-38.41770,-42.67072,0,0,0.000
286,24890,7.08594,-3.29297,9.80469,0.82482910,-0.33502197,-0.18304443,-0.41699219,-29.44953,-35.54773,-44.00661,0,0,0.000
287,24900,6.32031,-3.02734,9.76953,0.83435059,-0.31750488,-0.16198730,-0.42047119,-27.82024,-32.50132,-45.23361,0,0,0.000
288,24911,5.25000,-3.83203,9.72656,0.84246826,-0.30169678,-0.14117432,-0.42340088,-26.55081,-29.56172,-46.24117,0,0,0.000
289,24919,5.13281,-3.94531,10.00000,0.84979248,-0.28662109,-0.12030029,-0.42578125,-25.49211,-26.64807,-47.09242,0,0,0.000
290,24934,5.47656,-4.09766,10.79688,0.85589600,-0.27252197,-0.10119629,-0.42761230,-24.57372,-23.97433,-47.79888,0,0,0.000
291,24942,5.74609,-4.71094,11.30078,0.86224365,-0.25744629,-0.08172607,-0.42846680,-23.64428,-21.19529,-48.36200,0,0,0.000
292,24950,4.90234,-4.21484,11.45703,0.86804199,-0.24261475,-0.06341553,-0.42846680,-22.76534,-18.54267,-48.77744,0,0,0.000
293,24959,4.98047,-4.90234,11.83984,0.87426758,-0.22637939,-0.04406738,-0.42712402,-21.84298,-15.69082,-49.02968,0,0,0.000
294,24969,4.44531,-5.78516,12.60547,0.88031006,-0.21130371,-0.02563477,-0.42395020,-21.06665,-12.96176,-49.01009,0,0,0.000
295,24980,2.79688,-6.89453,12.94922,0.88659668,-0.19653320,-0.00628662,-0.41870117,-20.40426,-10.12054,-48.73271,0,0,0.000
296,24995,1.30078,-7.16406,13.94531,0.89227295,-0.18383789,0.01239014,-0.41223145,-19.94639,-7.43793,-48.28431,0,0,0.000
297,25000,1.30078,-7.16406,13.94531,0.89752197,-0.17211914,0.03240967,-0.40466309,-19.65215,-4.65329,-47.73172,0,0,0.000
298,25009,1.03516,-8.08203,14.67188,0.90161133,-0.16174316,0.05102539,-0.39788818,-19.42020,-2.10334,-47.26454,0,0,0.000
299,25020,0.57422,-8.81250,15.28516,0.90466309,-0.15185547,0.06817627,-0.39227295,-19.16235,0.24153,-46.92506,0,0,0.000
300,25031,-0.49609,-11.41406,17.35156,0.90692139,-0.14196777,0.08435059,-0.38751221,-18.85645,2.46291,-46.68144,0,0,0.000
301,25039,-0.69141,-11.41406,18.31641,0.90887451,-0.13098145,0.10253906,-0.38244629,-18.52444,4.94529,-46.44881,0,0,0.000
302,25049,-1.30078,-11.45312,18.84375,0.91009521,-0.12200928,0.12005615,-0.37744141,-18.37449,7.26265,-46.22641,0,0,0.000
303,25059,-1.18750,-11.33984,19.00000,0.91052246,-0.11505127,0.13897705,-0.37207031,-18.50589,9.64032,-46.02733,0,0,0.000
304,25074,-0.30469,-10.49609,18.88672,0.90960693,-0.11010742,0.15753174,-0.36828613,-18.85982,11.85820,-46.06091,0,0,0.000
305,25082,0.34375,-9.38672,18.27734,0.90783691,-0.10626221,0.17724609,-0.36480713,-19.41097,14.14050,-46.21514,0,0,0.000
306,25089,0.11328,-7.92969,18.16016,0.90490723,-0.10369873,0.19934082,-0.36138916,-20.25603,16.60866,-46.52728,0,0,0.000
307,25099,-0.46094,-7.01172,17.35156,0.90130615,-0.10296631,0.21984863,-0.35882568,-21.26831,18.80775,-46.97901,0,0,0.000
308,25110,-2.26172,-6.97266,15.44141,0.89617920,-0.10375977,0.24230957,-0.35687256,-22.62926,21.11595,-47.69793,0,0,0.000
309,25119,-3.44922,-7.81641,14.71484,0.89086914,-0.10607910,0.26226807,-0.35546875,-24.08438,23.07032,-48.49127,0,0,0.000
310,25134,-3.52344,-8.16016,13.75391,0.88494873,-0.11102295,0.28186035,-0.35363770,-25.86697,24.85699,-49.35927,0,0,0.000
311,25139,-3.52344,-8.16016,13.75391,0.87933350,-0.11895752,0.29998779,-0.35015869,-27.90636,26.37719,-50.09022,0,0,0.000
312,25151,-1.87891,-6.20703,11.68359,0.87341309,-0.12744141,0.31628418,-0.34765625,-29.96940,27.63812,-50.94309,0,0,0.000
313,25160,-1.22656,-5.70703,11.21875,0.86749268,-0.13690186,0.33166504,-0.34454346,-32.11623,28.75713,-51.76365,0,0,0.000
314,25169,-1.10938,-4.75000,10.99609,0.86157227,-0.14776611,0.34667969,-0.34008789,-34.41132,29.79367,-52.49952,0,0,0.000
315,25179,-1.03516,-3.56250,9.96094,0.85589600,-0.15936279,0.36041260,-0.33496094,-36.71785,30.67482,-53.14788,0,0,0.000
316,25194,0.72656,-3.60156,8.92578,0.85009766,-0.17224121,0.37316895,-0.32922363,-39.12373,31.40342,-53.74939,0,0,0.000
317,25199,0.72656,-3.60156,8.92578,0.84393311,-0.18756104,0.38690186,-0.32080078,-41.86529,32.18770,-54.22188,0,0,0.000
318,25208,1.83984,-3.71484,6.85156,0.83697510,-0.20129395,0.40167236,-0.31237793,-44.59627,33.13666,-54.84562,0,0,0.000
319,25219,1.26562,-3.75391,6.12891,0.82977295,-0.21459961,0.41815186,-0.30096436,-47.43755,34.38596,-55.35542,0,0,0.000
320,25229,0.49609,-4.59766,5.32422,0.82269287,-0.22601318,0.43511963,-0.28765869,-50.15907,35.86807,-55.77072,0,0,0.000
321,25239,0.57422,-5.47656,5.63672,0.81671143,-0.23419189,0.45001221,-0.27508545,-52.39563,37.31427,-56.09370,0,0,0.000
322,25252,0.69141,-5.85938,5.74609,0.81060791,-0.24090576,0.46545410,-0.26129150,-54.58451,38.95296,-56.41500,0,0,0.000
323,25260,0.72656,-5.98047,5.44141,0.80383301,-0.24688721,0.48229980,-0.24548340,-56.91676,40.85745,-56.79169,0,0,0.000
324,25271,2.03125,-3.98438,4.55469,0.79675293,-0.25097656,0.50006104,-0.22827148,-59.24231,43.02260,-57.23621,0,0,0.000
325,25279,2.10547,-2.60547,4.40625,0.78894043,-0.25244141,0.51910400,-0.21057129,-61.60044,45.46294,-57.93365,0,0,0.000
326,25290,2.10547,-2.60547,4.40625,0.77978516,-0.25347900,0.53851318,-0.19415283,-64.25217,47.85215,-59.09880,0,0,0.000
327,25301,1.83984,0.99609,3.82812,0.76837158,-0.25592041,0.55871582,-0.17864990,-67.57762,50.10186,-60.91298,0,0,0.000
328,25311,-0.30469,0.95703,-1.10938,0.75634766,-0.25927734,0.57720947,-0.16589355,-71.15841,51.91853,-63.14708,0,0,0.000
329,25319,-0.57422,1.07422,-2.03516,0.74499512,-0.26342773,0.59259033,-0.15631104,-74.62292,53.18684,-65.46573,0,0,0.000
330,25330,-0.57422,1.07422,-2.03516,0.73516846,-0.26885986,0.60406494,-0.14959717,-77.69305,53.87296,-67.51517,0,0,0.000
331,25343,-1.10938,-0.65234,-2.52734,0.72631836,-0.27539062,0.61297607,-0.14465332,-80.47462,54.16679,-69.32392,0,0,0.000
332,25350,-0.88281,-1.10938,-2.03125,0.71917725,-0.28149414,0.61926270,-0.14154053,-82.68053,54.19904,-70.74168,0,0,0.000
333,25358,-0.76562,-1.22656,-1.64844,0.71295166,-0.28759766,0.62408447,-0.13946533,-84.56722,54.06754,-71.92301,0,0,0.000
334,25369,-0.72656,-0.65234,-1.26953,0.70806885,-0.29309082,0.62738037,-0.13842773,-86.01492,53.83174,-72.80254,0,0,0.000
335,25380,-0.91797,0.03906,-1.65234,0.70410156,-0.29888916,0.62921143,-0.13793945,-87.15486,53.47313,-73.38865,0,0,0.000
336,25388,-1.53125,0.00000,-2.21875,0.70086670,-0.30535889,0.62969971,-0.13781738,-88.05387,52.98946,-73.70034,0,0,0.000
337,25399,-1.33984,-0.11328,-2.67969,0.69879150,-0.31213379,0.62866211,-0.13818359,-88.61378,52.40155,-73.68272,0,0,0.000
338,25409,-2.29688,0.42188,-2.41406,0.69812012,-0.31811523,0.62603760,-0.13970947,-88.72581,51.73945,-73.37914,0,0,0.000
339,25420,-2.87109,-0.38281,-2.75781,0.69903564,-0.32269287,0.62207031,-0.14227295,-88.37774,51.06705,-72.82449,0,0,0.000
340,25428,-3.26172,-0.69141,-2.71875,0.70208740,-0.32556152,0.61621094,-0.14617920,-87.43147,50.36163,-71.93405,0,0,0.000
341,25438,-3.56250,-0.65234,-2.75781,0.70745850,-0.32623291,0.60839844,-0.15136719,-85.85206,49.64809,-70.71256,0,0,0.000
342,25449,-3.56250,-0.65234,-2.75781,0.71508789,-0.32495117,0.59851074,-0.15747070,-83.68079,48.90912,-69.14906,0,0,0.000
343,25462,-2.83984,-0.07812,-1.18750,0.72546387,-0.32135010,0.58587646,-0.16503906,-80.78476,48.06937,-67.18966,0,0,0.000
344,25469,-2.87109,-0.57422,-0.07812,0.73883057,-0.31457520,0.57012939,-0.17340088,-77.08460,47.17254,-64.77322,0,0,0.000
345,25478,-2.75781,-1.49219,1.33984,0.75305176,-0.30670166,0.55267334,-0.18273926,-73.15895,46.07880,-62.31241,0,0,0.000
346,25488,-2.91016,-2.33594,2.98438,0.76818848,-0.29821777,0.53259277,-0.19329834,-69.00188,44.66226,-59.77904,0,0,0.000
347,25500,-2.10547,-4.09766,5.28125,0.78210449,-0.29119873,0.51208496,-0.20312500,-65.24801,43.05699,-57.46169,0,0,0.000
348,25513,-1.99219,-4.86328,6.01562,0.79602051,-0.28552246,0.48937988,-0.21295166,-61.63325,41.10945,-55.17054,0,0,0.000
349,25523,-2.07031,-5.36328,6.62891,0.80859375,-0.28112793,0.46673584,-0.22210693,-58.46061,39.04269,-53.16121,0,0,0.000
350,25528,-2.07031,-5.36328,6.62891,0.82037354,-0.27722168,0.44378662,-0.23077393,-55.55396,36.88063,-51.34554,0,0,0.000
351,25538,-1.30078,-4.98047,7.73438,0.83062744,-0.27227783,0.42224121,-0.24017334,-52.91558,34.79453,-49.97984,0,0,0.000
352,25548,-0.84375,-4.59766,8.53906,0.84051514,-0.26513672,0.40008545,-0.25122070,-50.17998,32.64080,-48.89464,0,0,0.000
353,25558,-1.45703,-5.21094,9.26562,0.84863281,-0.25653076,0.38140869,-0.26171875,-47.72233,30.87035,-48.20565,0,0,0.000
354,25568,-1.45703,-5.21094,9.26562,0.85620117,-0.24627686,0.36358643,-0.27215576,-45.24738,29.24576,-47.67817,0,0,0.000
355,25581,-3.75391,-6.85547,11.60547,0.86364746,-0.23522949,0.34503174,-0.28234863,-42.71014,27.59016,-47.17511,0,0,0.000
356,25588,-3.86719,-7.39453,12.37891,0.87115479,-0.22406006,0.32458496,-0.29241943,-40.10665,25.75336,-46.65063,0,0,0.000
357,25598,-4.02344,-7.92969,12.98828,0.87707520,-0.21569824,0.30645752,-0.30053711,-38.03540,24.07371,-46.23561,0,0,0.000
358,25608,-3.71484,-8.65625,13.25391,0.88226318,-0.20898438,0.28808594,-0.30810547,-36.19078,22.30658,-45.87284,0,0,0.000
359,25619,-2.41406,-9.46094,13.17188,0.88671875,-0.20373535,0.26989746,-0.31530762,-34.57000,20.49668,-45.58990,0,0,0.000
360,25627,-2.52734,-9.19531,12.72266,0.88995361,-0.19995117,0.25415039,-0.32165527,-33.29309,18.88783,-45.43711,0,0,0.000
361,25638,-2.14453,-8.19922,12.52734,0.89282227,-0.19665527,0.23760986,-0.32818604,-32.05882,17.17054,-45.33236,0,0,0.000
362,25648,-2.14453,-8.19922,12.52734,0.89489746,-0.19384766,0.22229004,-0.33496094,-30.97570,15.54426,-45.37365,0,0,0.000
363,25661,-0.99609,-5.28516,12.06250,0.89636230,-0.19036865,0.20642090,-0.34301758,-29.82633,13.85478,-45.58811,0,0,0.000
364,25668,-0.88281,-4.40625,11.68359,0.89758301,-0.18524170,0.18896484,-0.35253906,-28.44222,12.04158,-45.94857,0,0,0.000
365,25678,-1.37891,-4.09766,12.14062,0.89849854,-0.17962646,0.17285156,-0.36126709,-27.07803,10.41842,-46.32329,0,0,0.000
366,25688,-1.80078,-4.17578,12.72266,0.89929199,-0.17309570,0.15533447,-0.37042236,-25.55316,8.69303,-46.74883,0,0,0.000
367,25698,-1.83984,-5.97656,13.37109,0.89990234,-0.16503906,0.13537598,-0.38031006,-23.75445,6.78335,-47.24731,0,0,0.000
368,25713,-1.57031,-6.08984,14.13672,0.90032959,-0.15698242,0.11749268,-0.38848877,-22.05424,5.14034,-47.68238,0,0,0.000
369,25718,-1.57031,-6.08984,14.13672,0.90075684,-0.14715576,0.09625244,-0.39709473,-20.00513,3.24080,-48.15189,0,0,0.000
370,25730,-1.10938,-7.04688,14.71094,0.90093994,-0.13739014,0.07312012,-0.40502930,-17.87054,1.17237,-48.59818,0,0,0.000
371,25738,-0.91797,-6.82031,14.94141,0.90081787,-0.12951660,0.05072021,-0.41137695,-15.96736,-0.86979,-48.96757,0,0,0.000
372,25748,-0.26953,-5.97656,14.89844,0.90002441,-0.12341309,0.02514648,-0.41723633,-14.09565,-3.30897,-49.33410,0,0,0.000
373,25758,0.30469,-5.51562,15.32422,0.89831543,-0.12176514,0.00000000,-0.42218018,-12.70463,-5.90102,-49.68661,0,0,0.000
374,25768,0.30469,-5.51562,15.32422,0.89544678,-0.12420654,-0.02478027,-0.42675781,-11.74805,-8.64969,-50.07210,0,0,0.000
375,25781,2.87109,-7.23828,15.94141,0.89129639,-0.12939453,-0.05151367,-0.43157959,-10.96212,-11.74184,-50.54336,0,0,0.000
376,25788,4.13672,-7.08594,16.28125,0.88598633,-0.13610840,-0.07952881,-0.43615723,-10.24732,-15.04858,-51.06355,0,0,0.000
377,25798,4.94141,-7.08594,16.62500,0.87976074,-0.14331055,-0.10894775,-0.44000244,-9.48743,-18.53074,-51.59163,0,0,0.000
378,25809,6.16797,-5.82422,16.62891,0.87390137,-0.14904785,-0.13641357,-0.44207764,-8.66183,-21.72920,-52.00115,0,0,0.000
379,25817,6.58984,-4.59766,16.39062,0.86883545,-0.15307617,-0.16229248,-0.44201660,-7.74836,-24.66581,-52.23253,0,0,0.000
380,25832,6.74219,-3.37109,16.20312,0.86462402,-0.15545654,-0.18615723,-0.44006348,-6.78463,-27.30388,-52.29932,0,0,0.000
381,25840,6.74219,-3.10156,16.00781,0.86102295,-0.15661621,-0.20843506,-0.43658447,-5.79607,-29.71702,-52.23593,0,0,0.000
382,25849,6.82031,-3.17969,15.62500,0.85809326,-0.15716553,-0.22851562,-0.43218994,-4.87693,-31.87103,-52.07215,0,0,0.000
383,25857,7.23828,-3.60156,15.55078,0.85540771,-0.15802002,-0.24591064,-0.42761230,-4.14134,-33.76865,-51.86279,0,0,0.000
384,25867,7.50781,-4.32812,15.36328,0.85278320,-0.16015625,-0.26062012,-0.42327881,-3.69745,-35.45756,-51.61257,0,0,0.000
385,25878,7.35547,-4.86328,15.24219,0.84991455,-0.16430664,-0.27325439,-0.41949463,-3.59382,-37.03769,-51.33524,0,0,0.000
386,25889,6.82031,-6.20703,14.51562,0.84674072,-0.17053223,-0.28387451,-0.41644287,-3.83669,-38.51594,-51.03677,0,0,0.000
387,25897,6.32031,-6.01562,14.09375,0.84271240,-0.17968750,-0.29400635,-0.41369629,-4.46824,-40.10381,-50.66220,1,72,1.205
388,25910,6.32031,-6.01562,14.09375,0.83819580,-0.19036865,-0.30291748,-0.41162109,-5.35640,-41.64595,-50.27102,1,72,1.205
389,25918,5.55469,-4.67188,13.52734,0.83178711,-0.20465088,-0.31256104,-0.41052246,-6.63320,-43.47305,-49.88955,1,72,1.205
390,25930,3.21875,1.33984,11.22266,0.82421875,-0.22015381,-0.32153320,-0.41082764,-8.06993,-45.31155,-49.61444,1,72,1.205
391,25937,2.56641,2.64453,9.72656,0.81451416,-0.23767090,-0.33099365,-0.41290283,-9.67281,-47.34888,-49.51470,1,72,1.205
392,25947,2.29688,3.21875,8.73438,0.80310059,-0.25518799,-0.34112549,-0.41662598,-11.15659,-49.51052,-49.68070,1,72,1.205
393,25958,1.68359,2.94922,8.15625,0.78973389,-0.27276611,-0.35241699,-0.42150879,-12.50952,-51.87062,-50.07849,1,72,1.205
394,25969,1.64844,-0.88281,7.55078,0.77600098,-0.28930664,-0.36376953,-0.42645264,-13.72636,-54.22008,-50.53008,1,72,1.205
395,25977,2.45312,-2.67969,7.93359,0.76037598,-0.30731201,-0.37652588,-0.43078613,-15.16083,-56.86729,-50.82396,1,72,1.205
396,25987,2.79688,-3.33203,8.01172,0.74597168,-0.32452393,-0.38763428,-0.43353271,-16.85102,-59.28421,-50.69128,1,72,1.205
397,25997,3.83203,-4.06250,8.35156,0.73175049,-0.34289551,-0.39678955,-0.43536377,-19.15824,-61.55240,-50.02330,1,72,1.205
398,26012,4.21484,-4.02344,7.89453,0.71850586,-0.36193848,-0.40222168,-0.43707275,-22.12349,-63.42199,-48.84968,1,72,1.205
399,26019,3.60156,-3.98438,7.05078,0.70513916,-0.38275146,-0.40454102,-0.43884277,-25.94604,-65.02477,-47.08559,1,72,1.205
400,26027,3.02734,-1.68359,6.51172,0.69281006,-0.40258789,-0.40478516,-0.44055176,-30.02166,-66.29113,-45.03912,1,72,1.205
401,26037,2.67969,0.91797,6.16797,0.68005371,-0.42272949,-0.40332031,-0.44287109,-34.46151,-67.37032,-42.78720,1,72,1.205
402,26047,2.75781,1.99219,4.09375,0.66729736,-0.44195557,-0.40075684,-0.44586182,-38.89534,-68.27042,-40.57460,1,72,1.205
403,26057,2.98828,1.10938,3.60547,0.65655518,-0.45745850,-0.39801025,-0.44860840,-42.62917,-68.91948,-38.70819,1,72,1.205
404,26067,3.14062,0.03906,3.26172,0.64550781,-0.47308350,-0.39428711,-0.45166016,-46.52258,-69.45974,-36.77414,1,72,1.205
405,26077,3.28906,-0.61328,2.79688,0.63641357,-0.48577881,-0.39038086,-0.45452881,-49.72122,-69.79968,-35.24382,1,72,1.205
406,26092,2.94922,-1.37891,1.57031,0.62933350,-0.49554443,-0.38696289,-0.45678711,-52.22421,-70.01054,-34.05378,1,72,1.205
407,26100,2.86719,-0.95703,1.45703,0.62292480,-0.50372314,-0.38409424,-0.45898438,-54.32121,-70.21282,-33.10135,1,72,1.205
408,26108,2.98828,-0.91797,1.49219,0.61627197,-0.51116943,-0.38201904,-0.46148682,-56.22924,-70.50263,-32.28044,1,72,1.205
409,26117,2.60156,-0.91797,1.26562,0.61035156,-0.51660156,-0.38104248,-0.46411133,-57.58290,-70.84983,-31.79646,1,72,1.205
410,26127,1.95312,-0.99609,1.49219,0.60321045,-0.52209473,-0.38085938,-0.46740723,-58.97540,-71.36397,-31.34001,1,72,1.205
411,26137,2.25781,-0.88281,1.68359,0.59600830,-0.52697754,-0.38128662,-0.47076416,-60.26372,-71.93977,-30.92255,1,72,1.205
412,26147,3.02344,-1.60938,1.10938,0.58789062,-0.53234863,-0.38189697,-0.47454834,-61.74924,-72.59767,-30.40179,1,72,1.205
413,26157,3.82812,-2.07031,1.22656,0.57952881,-0.53784180,-0.38214111,-0.47839355,-63.34123,-73.23677,-29.81925,1,72,1.205
414,26167,4.90234,-2.56641,0.72656,0.57080078,-0.54357910,-0.38195801,-0.48248291,-65.04941,-73.86396,-29.19357,1,72,1.205
415,26177,5.17578,-2.79688,0.65234,0.56323242,-0.54858398,-0.38146973,-0.48608398,-66.57819,-74.37711,-28.62662,1,72,1.205
416,26187,5.28125,-3.02734,0.53516,0.55615234,-0.55358887,-0.38061523,-0.48925781,-68.19424,-74.80701,-27.94037,1,72,1.205
417,26199,5.35938,-2.98828,0.53516,0.55010986,-0.55865479,-0.37921143,-0.49139404,-69.97350,-75.07620,-27.00713,1,72,1.205
418,26212,5.74219,-2.33594,0.61328,0.54528809,-0.56420898,-0.37701416,-0.49212646,-72.06387,-75.12495,-25.68674,1,72,1.205
419,26217,5.74219,-2.33594,0.61328,0.54132080,-0.57025146,-0.37438965,-0.49157715,-74.46025,-75.00434,-23.99144,1,72,1.205
420,26227,5.63672,-2.18359,0.61328,0.53930664,-0.57568359,-0.37139893,-0.48968506,-76.59579,-74.66823,-22.35480,1,72,1.205
421,26237,7.20312,-1.87891,1.10938,0.53918457,-0.57995605,-0.36804199,-0.48724365,-78.07770,-74.17771,-21.18657,1,72,1.205
422,26247,8.73438,-1.64844,2.22266,0.54046631,-0.58264160,-0.36431885,-0.48547363,-78.61492,-73.64389,-20.85016,1,72,1.205
423,26257,9.11719,-1.57031,2.48828,0.54272461,-0.58428955,-0.35949707,-0.48455811,-78.39168,-73.03445,-21.27243,1,72,1.205
424,26267,9.65234,-1.41797,2.64453,0.54565430,-0.58489990,-0.35351562,-0.48492432,-77.44283,-72.38023,-22.46417,2,72,1.200
425,26279,9.96484,-1.95312,2.75781,0.54937744,-0.58453369,-0.34588623,-0.48669434,-75.79171,-71.62595,-24.43486,2,72,1.200
426,26287,9.54297,-2.14453,2.91016,0.55389404,-0.58294678,-0.33715820,-0.48962402,-73.57734,-70.78987,-26.98556,2,72,1.200
427,26297,9.26562,-2.10547,2.94922,0.55944824,-0.58013916,-0.32684326,-0.49365234,-70.86031,-69.78769,-30.06818,2,72,1.200
428,26307,8.84375,-2.22266,2.71875,0.56536865,-0.57635498,-0.31628418,-0.49816895,-68.05768,-68.72446,-33.20419,2,72,1.200
429,26318,7.77344,-3.02734,2.83594,0.57189941,-0.57165527,-0.30615234,-0.50238037,-65.34381,-67.60474,-36.12243,2,72,1.200
430,26326,7.62891,-3.02734,2.98828,0.57897949,-0.56646729,-0.29656982,-0.50592041,-62.87081,-66.43108,-38.66946,2,72,1.200
431,26336,8.00781,-3.56250,3.41016,0.58593750,-0.56115723,-0.28790283,-0.50885010,-60.71702,-65.29101,-40.80818,2,72,1.200
432,26347,8.00781,-3.56250,3.41016,0.59234619,-0.55584717,-0.28082275,-0.51116943,-58.86713,-64.28410,-42.54407,2,72,1.200
433,26360,9.11719,-4.36719,4.44531,0.59924316,-0.54986572,-0.27435303,-0.51312256,-57.03799,-63.26506,-44.13319,2,72,1.200
434,26367,9.26953,-3.79297,4.82812,0.60675049,-0.54309082,-0.26782227,-0.51495361,-55.16879,-62.16991,-45.67737,2,72,1.200
435,26376,9.46094,-3.75391,5.25000,0.61450195,-0.53601074,-0.26141357,-0.51647949,-53.39782,-61.03884,-47.06559,2,72,1.200
436,26386,9.76562,-3.98438,5.36328,0.62304688,-0.52819824,-0.25457764,-0.51770020,-51.63160,-59.78246,-48.36766,2,72,1.200
437,26398,9.42188,-4.32812,5.47656,0.63220215,-0.51995850,-0.24731445,-0.51849365,-49.95514,-58.41507,-49.51902,2,72,1.200
438,26406,9.38672,-4.75000,5.47656,0.64306641,-0.51019287,-0.23864746,-0.51885986,-48.18164,-56.75877,-50.63705,2,72,1.200
439,26416,9.26953,-5.05469,5.70703,0.65435791,-0.50030518,-0.22985840,-0.51831055,-46.61139,-55.03184,-51.46894,2,72,1.200
440,26427,9.26953,-5.05469,5.70703,0.66564941,-0.49072266,-0.22113037,-0.51690674,-45.27903,-53.29419,-52.02118,2,72,1.200
441,26440,8.84766,-7.35547,7.31641,0.67718506,-0.48126221,-0.21185303,-0.51470947,-44.13557,-51.47601,-52.35807,2,72,1.200
442,26447,9.96484,-8.04297,7.89062,0.68853760,-0.47204590,-0.20220947,-0.51202393,-43.15030,-49.63015,-52.54902,2,72,1.200
443,26456,10.41797,-8.31250,8.27344,0.69970703,-0.46240234,-0.19207764,-0.50958252,-42.15405,-47.73821,-52.77393,2,72,1.200
444,26466,10.15234,-7.69922,8.27344,0.70953369,-0.45281982,-0.18200684,-0.50830078,-41.14701,-45.94162,-53.15467,2,72,1.200
445,26478,9.07812,-5.82422,8.12109,0.71771240,-0.44342041,-0.17187500,-0.50866699,-40.12717,-44.25150,-53.76017,2,72,1.200
446,26486,8.58203,-5.82422,7.77734,0.72576904,-0.43255615,-0.15924072,-0.51062012,-38.97675,-42.29367,-54.66792,2,72,1.200
447,26496,8.31641,-5.47656,7.73828,0.73266602,-0.42230225,-0.14685059,-0.51318359,-37.94790,-40.43481,-55.58464,2,72,1.200
448,26507,8.31641,-5.47656,7.73828,0.73968506,-0.41137695,-0.13336182,-0.51556396,-36.96486,-38.42581,-56.46515,2,72,1.200
449,26520,7.54688,-4.51953,8.19531,0.74743652,-0.39959717,-0.11785889,-0.51745605,-36.06013,-36.13838,-57.26657,2,72,1.200
450,26527,6.93359,-4.78906,7.73828,0.75585938,-0.38726807,-0.10125732,-0.51812744,-35.26426,-33.66774,-57.87385,2,72,1.200
451,26536,6.35938,-5.32422,7.81641,0.76464844,-0.37408447,-0.08471680,-0.51788330,-34.45996,-31.13243,-58.34301,2,72,1.200
452,26546,5.89844,-5.85938,7.77344,0.77313232,-0.36083984,-0.07086182,-0.51672363,-33.60199,-28.84865,-58.63219,2,72,1.200
453,26557,5.55469,-7.46875,8.46484,0.78228760,-0.34619141,-0.05834961,-0.51452637,-32.58603,-26.58708,-58.76640,2,72,1.200
454,26565,5.21094,-7.92969,9.12109,0.79095459,-0.33264160,-0.04760742,-0.51135254,-31.66683,-24.55092,-58.70312,2,72,1.200
455,26576,4.86328,-7.69922,9.42188,0.80047607,-0.31860352,-0.03497314,-0.50646973,-30.85324,-22.25408,-58.43074,2,72,1.200
456,26586,4.86328,-7.69922,9.42188,0.80889893,-0.30731201,-0.02148438,-0.50073242,-30.41798,-20.03144,-58.01974,2,72,1.200
457,26599,3.75391,-6.78125,9.46484,0.81689453,-0.29785156,-0.00592041,-0.49389648,-30.30771,-17.69128,-57.48763,2,72,1.200
458,26606,3.37109,-6.24219,9.23047,0.82519531,-0.28851318,0.01214600,-0.48547363,-30.35347,-15.07483,-56.82660,2,72,1.200
459,26616,3.14062,-5.85938,9.30859,0.83166504,-0.28076172,0.02746582,-0.47827148,-30.39799,-12.87811,-56.29207,3,76,1.265
460,26626,2.94922,-6.01562,8.84375,0.83776855,-0.27233887,0.04211426,-0.47137451,-30.32129,-10.73021,-55.81366,3,76,1.265
461,26636,3.17969,-4.75000,9.80469,0.84356689,-0.26269531,0.05590820,-0.46508789,-30.05638,-8.62816,-55.41843,3,76,1.265
462,26645,1.57031,-5.51562,9.22656,0.84777832,-0.25439453,0.06634521,-0.46057129,-29.74655,-6.99859,-55.16684,3,76,1.265
463,26656,1.64844,-5.89844,9.23047,0.85211182,-0.24475098,0.07708740,-0.45611572,-29.30853,-5.27275,-54.93853,3,76,1.265
464,26666,1.64844,-5.89844,9.23047,0.85601807,-0.23510742,0.08648682,-0.45214844,-28.79947,-3.70049,-54.73558,3,76,1.265
465,26679,0.57422,-6.82031,10.03516,0.86004639,-0.22448730,0.09521484,-0.44824219,-28.15120,-2.14730,-54.51714,3,76,1.265
466,26686,0.19141,-6.85547,10.49609,0.86389160,-0.21313477,0.10345459,-0.44445801,-27.40313,-0.61376,-54.30051,3,76,1.265
467,26696,-0.23047,-7.66016,11.30078,0.86737061,-0.20208740,0.11169434,-0.44085693,-26.68631,0.89256,-54.09728,3,76,1.265
468,26708,-1.60938,-10.30469,12.17969,0.87011719,-0.19256592,0.11944580,-0.43762207,-26.10448,2.25361,-53.92238,3,76,1.265
469,26716,-1.41797,-11.14844,12.87109,0.87255859,-0.18414307,0.12713623,-0.43420410,-25.63294,3.55224,-53.72024,3,76,1.265
470,26726,-1.60938,-12.14453,13.44922,0.87512207,-0.17645264,0.13549805,-0.42974854,-25.26786,4.90435,-53.40873,3,76,1.265
471,26736,-0.69141,-12.67969,14.13672,0.87762451,-0.16986084,0.14471436,-0.42419434,-25.05603,6.30990,-52.99648,3,76,1.265
472,26746,-0.69141,-12.67969,14.13672,0.87976074,-0.16430664,0.15527344,-0.41821289,-25.01765,7.80363,-52.58397,3,76,1.265
473,26759,2.33594,-11.18750,15.24219,0.88201904,-0.15893555,0.16876221,-0.41021729,-25.13956,9.63149,-52.03761,3,76,1.265
474,26766,1.80078,-9.88281,14.85938,0.88427734,-0.15368652,0.18560791,-0.39996338,-25.43142,11.84838,-51.35763,3,76,1.265
475,26776,0.80469,-8.39062,13.94531,0.88629150,-0.14892578,0.20410156,-0.38806152,-25.83834,14.25376,-50.57792,3,76,1.265
476,26787,-1.33984,-8.39062,13.36719,0.88775635,-0.14410400,0.22235107,-0.37646484,-26.21514,16.63506,-49.85938,3,76,1.265
477,26795,-2.67969,-7.92969,13.29297,0.88885498,-0.13916016,0.23992920,-0.36468506,-26.52821,18.96730,-49.12544,3,76,1.265
478,26810,-3.29297,-7.50781,13.75391,0.88928223,-0.13513184,0.25524902,-0.35467529,-26.82847,20.98418,-48.54557,3,76,1.265
479,26818,-2.71875,-7.08594,13.87109,0.88879395,-0.13281250,0.27062988,-0.34521484,-27.33357,22.91516,-48.09612,3,76,1.265
480,26827,-1.83984,-6.82031,14.05469,0.88745117,-0.13299561,0.28619385,-0.33593750,-28.14107,24.74636,-47.76175,3,76,1.265
481,26835,-1.49219,-6.43750,14.25000,0.88452148,-0.13476562,0.30169678,-0.32922363,-29.21370,26.42341,-47.83320,3,76,1.265
482,26845,-1.64844,-6.43750,13.59375,0.88018799,-0.13867188,0.31848145,-0.32348633,-30.68169,28.09364,-48.21172,3,76,1.265
483,26856,-1.87891,-6.47266,13.06250,0.87451172,-0.14489746,0.33563232,-0.31872559,-32.53275,29.64755,-48.88114,3,76,1.265
484,26867,-2.26172,-5.36328,11.95312,0.86773682,-0.15362549,0.35235596,-0.31512451,-34.74700,30.97532,-49.82738,3,76,1.265
485,26875,-2.37500,-6.28125,11.03125,0.85900879,-0.16632080,0.37060547,-0.31164551,-37.64085,32.21003,-51.12157,3,76,1.265
486,26890,-2.41406,-6.43750,10.38281,0.85021973,-0.17938232,0.38702393,-0.30859375,-40.53029,33.18611,-52.45442,3,76,1.265
487,26895,-2.41406,-6.43750,10.38281,0.84057617,-0.19384766,0.40386963,-0.30456543,-43.69116,34.11660,-53.85954,3,76,1.265
488,26907,-1.45703,-7.35547,8.12109,0.83013916,-0.20831299,0.42169189,-0.29943848,-47.02255,35.12518,-55.34941,3,76,1.265
489,26915,-1.41797,-8.19531,7.81641,0.82031250,-0.22106934,0.43945312,-0.29162598,-50.18727,36.30396,-56.59858,3,76,1.265
490,26925,-1.80078,-7.12500,7.39062,0.81134033,-0.23132324,0.45739746,-0.28106689,-53.11926,37.74720,-57.60977,3,76,1.265
491,26935,-1.49219,-5.97656,7.31250,0.80236816,-0.23931885,0.47644043,-0.26812744,-55.99725,39.51301,-58.57829,3,76,1.265
492,26950,-1.80078,-2.33594,6.43750,0.79382324,-0.24499512,0.49475098,-0.25506592,-58.66977,41.33800,-59.56534,3,76,1.265
493,26957,-1.53125,-1.64844,5.36328,0.78448486,-0.24987793,0.51354980,-0.24169922,-61.49944,43.23155,-60.77743,3,76,1.265
494,26965,-0.99609,-0.99609,4.21094,0.77349854,-0.25524902,0.53350830,-0.22784424,-64.78399,45.15560,-62.38163,3,76,1.265
495,26975,-0.76562,-0.15234,3.83203,0.76281738,-0.26043701,0.55090332,-0.21630859,-67.95866,46.70282,-64.11092,3,76,1.265
496,26986,-1.14844,0.19141,1.53516,0.75183105,-0.26599121,0.56707764,-0.20605469,-71.22715,47.99174,-66.02322,3,76,1.265
497,26995,-1.33984,-0.03906,0.53516,0.74041748,-0.27172852,0.58233643,-0.19689941,-74.59715,49.05888,-68.12153,3,76,1.265
498,27005,-1.29688,-0.53516,0.00000,0.72900391,-0.27740479,0.59661865,-0.18884277,-77.97089,49.91509,-70.32663,3,76,1.265
499,27015,-1.71875,-0.69141,-0.15234,0.71893311,-0.28289795,0.60809326,-0.18255615,-80.92960,50.44981,-72.28133,3,76,1.265
500,27030,-0.34375,-0.95312,0.23047,0.70996094,-0.28881836,0.61730957,-0.17736816,-83.55916,50.72204,-73.95949,3,76,1.265
501,27038,0.72656,-1.22656,0.03906,0.70074463,-0.29559326,0.62597656,-0.17242432,-86.22739,50.83843,-75.61945,3,76,1.265
502,27046,1.41797,-1.26562,-0.30469,0.69049072,-0.30285645,0.63531494,-0.16711426,-89.14982,50.90439,-77.45814,3,76,1.265
503,27055,1.67969,-0.53516,-0.84375,0.68151855,-0.30810547,0.64349365,-0.16284180,-91.64034,50.96509,-79.12741,3,76,1.265
504,27066,0.61328,-0.38281,-2.56641,0.67205811,-0.31201172,0.65252686,-0.15863037,-94.22883,51.08763,-81.01845,3,76,1.265
505,27075,0.30469,-0.57422,-3.02344,0.66448975,-0.31317139,0.66033936,-0.15588379,-96.26367,51.25724,-82.72240,3,76,1.265
506,27085,-0.03906,0.07812,-3.64062,0.65789795,-0.31237793,0.66778564,-0.15374756,-98.03873,51.50166,-84.39167,3,76,1.265
507,27095,-0.72656,0.26953,-3.32812,0.65277100,-0.31042480,0.67401123,-0.15240479,-99.41953,51.75175,-85.83564,3,76,1.265
508,27105,-1.68359,0.99609,-4.59766,0.64947510,-0.30718994,0.67871094,-0.15216064,-100.29932,52.01194,-86.98415,3,76,1.265
509,27115,-2.26172,0.84375,-4.75000,0.64910889,-0.30407715,0.68023682,-0.15338135,-100.36020,52.16440,-87.42522,3,76,1.265
510,27126,-2.26172,0.84375,-4.75000,0.65063477,-0.30120850,0.67950439,-0.15551758,-99.86758,52.23790,-87.36613,3,76,1.265
511,27137,-2.75781,0.23047,-5.05859,0.65417480,-0.29833984,0.67663574,-0.15869141,-98.80396,52.24271,-86.82315,4,74,1.236
512,27145,-3.52344,0.11328,-4.71094,0.65911865,-0.29602051,0.67199707,-0.16235352,-97.34361,52.16013,-85.87508,4,74,1.236
513,27155,-3.32812,-1.87891,-2.22266,0.66497803,-0.29443359,0.66595459,-0.16613770,-95.62753,51.98689,-84.61544,4,74,1.236
514,27165,-3.67188,-2.33594,-1.57031,0.67260742,-0.29333496,0.65753174,-0.17089844,-93.39915,51.65230,-82.88087,4,74,1.236
515,27177,-4.02734,-2.87109,-0.49609,0.68060303,-0.29345703,0.64794922,-0.17553711,-91.08938,51.16689,-80.94501,4,74,1.236
516,27185,-4.06250,-2.56641,0.23047,0.68847656,-0.29492188,0.63763428,-0.18005371,-88.84084,50.51650,-78.93959,4,74,1.236
517,27195,-4.09766,-2.60547,0.57422,0.69671631,-0.29730225,0.62603760,-0.18511963,-86.51265,49.66494,-76.81735,4,74,1.236
518,27205,-4.09375,-2.87109,0.76562,0.70446777,-0.29974365,0.61450195,-0.19061279,-84.33340,48.71816,-74.87370,4,74,1.236
519,27216,-4.48047,-3.41016,1.41797,0.71215820,-0.30108643,0.60284424,-0.19696045,-82.14812,47.73221,-73.09330,4,74,1.236
520,27231,-4.71094,-3.25781,1.26562,0.71972656,-0.30072021,0.59149170,-0.20428467,-79.95847,46.76372,-71.54580,4,74,1.236
521,27238,-4.97656,-3.41016,1.95312,0.72808838,-0.29833984,0.57916260,-0.21325684,-77.49359,45.73322,-70.04586,4,74,1.236
522,27245,-4.98047,-3.44922,2.41406,0.73687744,-0.29406738,0.56616211,-0.22357178,-74.84438,44.66033,-68.65092,4,74,1.236
523,27256,-5.44141,-4.17578,3.60156,0.74572754,-0.28839111,0.55261230,-0.23516846,-72.10088,43.51785,-67.40607,4,74,1.236
524,27264,-5.85938,-5.25000,4.44531,0.75451660,-0.28186035,0.53839111,-0.24774170,-69.31174,42.28395,-66.28848,4,74,1.236
525,27274,-5.70703,-6.12891,5.13281,0.76336670,-0.27478027,0.52288818,-0.26153564,-66.43899,40.88562,-65.25907,4,74,1.236
526,27289,-5.51562,-6.85156,6.32031,0.77117920,-0.26843262,0.50756836,-0.27502441,-63.82835,39.43315,-64.41905,4,74,1.236
527,27297,-5.74609,-8.39062,6.66406,0.77832031,-0.26281738,0.49176025,-0.28863525,-61.37701,37.86340,-63.70608,4,74,1.236
528,27304,-6.58984,-8.58203,6.62891,0.78503418,-0.25799561,0.47515869,-0.30218506,-59.04163,36.16743,-63.05820,4,74,1.236
529,27314,-6.97266,-8.19922,6.89453,0.79113770,-0.25408936,0.45892334,-0.31457520,-56.93632,34.49029,-62.47665,4,74,1.236
530,27324,-7.04688,-7.58594,7.39453,0.79693604,-0.25079346,0.44213867,-0.32629395,-54.92962,32.75651,-61.90340,4,74,1.236
531,27336,-5.78516,-7.62500,8.65625,0.80224609,-0.24853516,0.42547607,-0.33703613,-53.11878,31.00726,-61.36491,4,74,1.236
532,27344,-4.98047,-8.00781,9.00000,0.80737305,-0.24731445,0.40710449,-0.34820557,-51.34479,29.02160,-60.84252,4,74,1.236
533,27354,-4.21484,-7.92969,9.42578,0.81158447,-0.24676514,0.38970947,-0.35852051,-49.80920,27.10586,-60.43896,4,74,1.236
534,27365,-4.21484,-7.92969,9.42578,0.81506348,-0.24639893,0.37329102,-0.36828613,-48.43906,25.27807,-60.15154,4,74,1.236
535,27378,-3.56250,-7.58594,9.46484,0.81805420,-0.24572754,0.35675049,-0.37829590,-47.08848,23.43932,-59.96486,4,74,1.236
536,27385,-3.71484,-7.66016,9.19531,0.82092285,-0.24371338,0.34008789,-0.38873291,-45.63525,21.64546,-59.87490,4,74,1.236
537,27394,-3.60156,-7.89062,9.22656,0.82379150,-0.23962402,0.32263184,-0.39984131,-43.95782,19.87285,-59.86940,4,74,1.236
538,27404,-3.83203,-7.89062,9.46094,0.82659912,-0.23449707,0.30584717,-0.41009521,-42.25188,18.25830,-59.88016,4,74,1.236
539,27416,-4.25391,-9.61328,10.41406,0.82916260,-0.22961426,0.28942871,-0.41949463,-40.62239,16.69813,-59.89058,4,74,1.236
540,27424,-3.86719,-10.76953,10.68750,0.83148193,-0.22564697,0.27160645,-0.42889404,-39.01746,14.95822,-59.89709,4,74,1.236
541,27434,-3.14062,-10.95703,11.11328,0.83294678,-0.22381592,0.25573730,-0.43670654,-37.78634,13.32919,-59.91531,4,74,1.236
542,27444,-3.14062,-10.95703,11.11328,0.83367920,-0.22326660,0.24047852,-0.44421387,-36.74874,11.68919,-59.99524,4,74,1.236
543,27457,-1.37891,-9.53906,12.02344,0.83361816,-0.22387695,0.22497559,-0.45202637,-35.83493,9.94449,-60.15977,4,74,1.236
544,27464,-1.49219,-9.19531,12.52344,0.83288574,-0.22503662,0.20922852,-0.46026611,-34.97653,8.12764,-60.41618,4,74,1.236
545,27474,-0.91797,-9.03906,12.26172,0.83190918,-0.22595215,0.19610596,-0.46734619,-34.26245,6.60877,-60.69154,4,74,1.236
546,27484,-0.30469,-8.73438,12.44531,0.83105469,-0.22613525,0.18359375,-0.47387695,-33.51223,5.21120,-60.95456,4,74,1.236
547,27495,0.23047,-7.23828,11.14844,0.83087158,-0.22442627,0.17193604,-0.47930908,-32.62216,4.04693,-61.14385,4,74,1.236
548,27504,0.15234,-6.24219,10.57031,0.83178711,-0.21972656,0.15985107,-0.48406982,-31.40030,3.04939,-61.25303,4,74,1.236
549,27514,0.53516,-5.70703,10.60938,0.83386230,-0.21191406,0.14654541,-0.48822021,-29.78998,2.14757,-61.26860,4,74,1.236
550,27524,0.53516,-5.70703,10.60938,0.83666992,-0.20214844,0.13305664,-0.49133301,-27.97926,1.37550,-61.18973,4,74,1.236
551,27537,-0.34375,-4.71094,11.57422,0.83996582,-0.19122314,0.11834717,-0.49383545,-25.98633,0.57009,-61.03607,4,74,1.236
552,27544,-0.69141,-5.25000,11.45703,0.84326172,-0.18084717,0.10107422,-0.49603271,-23.90786,-0.51267,-60.82219,4,74,1.236
553,27554,-0.72656,-6.24219,11.49609,0.84509277,-0.17504883,0.08544922,-0.49786377,-22.40318,-1.71203,-60.66758,4,74,1.236
554,27564,-0.53516,-7.27734,11.49609,0.84564209,-0.17260742,0.06787109,-0.50048828,-21.12922,-3.32426,-60.61768,4,74,1.236
555,27574,0.61328,-8.16016,11.83594,0.84448242,-0.17346191,0.04724121,-0.50445557,-20.01136,-5.46421,-60.73962,4,74,1.236
556,27584,1.37891,-8.08203,12.02734,0.84185791,-0.17730713,0.02801514,-0.50891113,-19.26968,-7.66067,-61.00434,4,74,1.236
557,27594,2.41406,-7.23828,12.06250,0.83740234,-0.18481445,0.00659180,-0.51434326,-18.75420,-10.31604,-61.40949,4,74,1.236
558,27604,2.41406,-7.23828,12.06250,0.83184814,-0.19445801,-0.01391602,-0.51959229,-18.49508,-13.01699,-61.85147,4,74,1.236
559,27617,3.33203,-4.55859,12.37891,0.82537842,-0.20520020,-0.03552246,-0.52478027,-18.26696,-15.90275,-62.32401,4,74,1.236
560,27624,3.98438,-4.09766,12.33984,0.81860352,-0.21472168,-0.05828857,-0.52947998,-17.83186,-18.83379,-62.80941,4,74,1.236
561,27634,4.44531,-3.17969,12.52344,0.81219482,-0.22180176,-0.08245850,-0.53326416,-17.05005,-21.74601,-63.27708,4,74,1.236
562,27644,5.32422,-3.21875,12.68359,0.80694580,-0.22546387,-0.10620117,-0.53540039,-15.94257,-24.38424,-63.66179,4,74,1.236
563,27654,6.93359,-5.25000,14.05859,0.80346680,-0.22625732,-0.12756348,-0.53564453,-14.69952,-26.57702,-63.89034,4,74,1.236
564,27669,7.89062,-5.78516,14.39844,0.80175781,-0.22534180,-0.14685059,-0.53375244,-13.45064,-28.42489,-63.88425,4,74,1.236
565,27674,7.89062,-5.78516,14.39844,0.80169678,-0.22399902,-0.16259766,-0.52978516,-12.44511,-29.87100,-63.58402,4,74,1.236
566,27684,7.69922,-6.51172,14.39844,0.80310059,-0.22338867,-0.17358398,-0.52441406,-11.88320,-30.87052,-62.99606,4,74,1.236
567,27694,7.23828,-7.89062,14.86328,0.80535889,-0.22442627,-0.17993164,-0.51831055,-11.84138,-31.49799,-62.17844,4,74,1.236
568,27704,6.47266,-8.92578,14.93750,0.80767822,-0.22796631,-0.18182373,-0.51251221,-12.35977,-31.82721,-61.25779,5,70,1.165
569,27714,5.36328,-9.19531,14.67188,0.80987549,-0.23364258,-0.18170166,-0.50646973,-13.26146,-32.07100,-60.21379,5,70,1.165
570,27725,2.10547,-3.25781,12.78906,0.81072998,-0.24359131,-0.17968750,-0.50109863,-14.74059,-32.37639,-59.13805,5,70,1.165
571,27734,0.84375,-1.60938,11.03516,0.80902100,-0.25836182,-0.17681885,-0.49749756,-16.75842,-32.89835,-58.19751,5,70,1.165
572,27743,0.15234,-0.15234,9.80469,0.80395508,-0.27770996,-0.17449951,-0.49609375,-19.20471,-33.78690,-57.47219,5,70,1.165
573,27754,0.57422,-0.53516,10.00000,0.79595947,-0.29943848,-0.17297363,-0.49688721,-21.82990,-34.95382,-57.00082,5,70,1.165
574,27769,1.91406,-2.83594,9.84766,0.78509521,-0.32159424,-0.17248535,-0.50042725,-24.37040,-36.35013,-56.91755,5,70,1.165
575,27774,1.91406,-2.83594,9.84766,0.77130127,-0.34680176,-0.17218018,-0.50512695,-27.27813,-38.02301,-56.88359,5,70,1.165
576,27784,-0.49609,-0.53516,7.35547,0.75585938,-0.37188721,-0.17248535,-0.51055908,-30.17660,-39.82621,-56.91945,5,70,1.165
577,27794,-0.61328,-1.57031,6.54688,0.73901367,-0.39660645,-0.17419434,-0.51599121,-33.04602,-41.81563,-56.91568,5,70,1.165
578,27809,-0.42188,-4.59766,5.78516,0.72155762,-0.42034912,-0.17718506,-0.52081299,-35.86446,-43.91252,-56.77701,5,70,1.165
579,27814,-0.42188,-4.59766,5.78516,0.70147705,-0.44659424,-0.18145752,-0.52496338,-39.16576,-46.33974,-56.30621,5,70,1.165
580,27824,-0.30469,-5.55469,5.97656,0.68151855,-0.47149658,-0.18493652,-0.52813721,-42.57507,-48.60553,-55.58924,5,70,1.165
581,27834,-1.07422,-5.40234,5.32422,0.66027832,-0.49725342,-0.18780518,-0.53057861,-46.43873,-50.86504,-54.50791,5,70,1.165
582,27849,1.68359,-3.86719,5.32422,0.63879395,-0.52160645,-0.19000244,-0.53265381,-50.41759,-52.98277,-53.23779,5,70,1.165
583,27854,1.68359,-3.86719,5.32422,0.61468506,-0.54675293,-0.19299316,-0.53472900,-54.87995,-55.28791,-51.61343,5,70,1.165
584,27863,3.64062,-1.76172,4.55859,0.59259033,-0.56744385,-0.19537354,-0.53723145,-58.84933,-57.27736,-50.15021,5,70,1.165
585,27874,4.06250,0.23047,3.67578,0.57208252,-0.58496094,-0.19732666,-0.54003906,-62.46644,-59.04210,-48.79561,5,70,1.165
586,27885,3.78906,3.67578,-0.38281,0.55242920,-0.60009766,-0.19812012,-0.54357910,-65.78804,-60.60701,-47.66138,5,70,1.165
587,27893,3.06250,2.87109,-1.45703,0.53167725,-0.61505127,-0.19805908,-0.54754639,-69.32332,-62.14616,-46.44555,5,70,1.165
588,27903,1.49219,1.72266,-2.18359,0.51232910,-0.62835693,-0.19836426,-0.55078125,-72.80057,-63.56118,-45.04279,5,70,1.165
589,27913,2.18359,0.11328,-2.21875,0.49847412,-0.63781738,-0.20001221,-0.55206299,-75.61658,-64.63177,-43.55564,5,70,1.165
590,27928,4.02734,-2.41406,-0.53516,0.48992920,-0.64410400,-0.20239258,-0.55145264,-77.78599,-65.33113,-42.06555,5,70,1.165
591,27936,4.33203,-2.18359,0.00000,0.48437500,-0.64929199,-0.20416260,-0.54968262,-79.70164,-65.72208,-40.56326,5,70,1.165
592,27944,4.83203,-1.99219,0.11328,0.48077393,-0.65386963,-0.20458984,-0.54718018,-81.41077,-65.83013,-39.16785,5,70,1.165
593,27953,5.55859,-1.83984,0.00000,0.47924805,-0.65704346,-0.20391846,-0.54504395,-82.52538,-65.73483,-38.25402,5,70,1.165
594,27964,6.51172,-1.91406,-0.23047,0.47906494,-0.65869141,-0.20275879,-0.54364014,-83.04947,-65.56360,-37.83671,5,70,1.165
595,27973,6.24219,-1.53125,0.07812,0.47985840,-0.65917969,-0.20153809,-0.54272461,-83.15523,-65.36360,-37.74430,5,70,1.165
596,27983,6.16797,-1.76172,0.49609,0.48144531,-0.65875244,-0.20019531,-0.54241943,-82.89735,-65.14425,-37.95459,5,70,1.165
597,27993,6.50781,-2.79688,1.14844,0.48345947,-0.65753174,-0.19830322,-0.54278564,-82.32378,-64.89358,-38.48434,6,69,1.158
598,28004,7.05078,-4.40625,1.95312,0.48614502,-0.65563965,-0.19561768,-0.54364014,-81.46464,-64.56206,-39.30091,6,69,1.158
599,28013,7.08984,-4.28906,2.10547,0.48974609,-0.65301514,-0.19183350,-0.54498291,-80.29525,-64.10367,-40.43087,6,69,1.158
600,28023,7.12500,-3.94531,2.22266,0.49389648,-0.64971924,-0.18731689,-0.54663086,-78.92778,-63.55700,-41.75701,6,69,1.158
601,28033,7.58594,-3.86719,2.52734,0.49951172,-0.64508057,-0.18188477,-0.54895020,-77.12647,-62.85814,-43.44940,6,69,1.158
602,28044,8.81641,-4.13672,3.06641,0.50653076,-0.63885498,-0.17590332,-0.55163574,-74.95496,-62.01528,-45.39912,6,69,1.158
603,28053,8.84375,-4.51953,3.21875,0.51373291,-0.63232422,-0.16979980,-0.55450439,-72.81030,-61.12341,-47.31166,6,69,1.158
604,28063,8.81641,-4.71094,3.21875,0.52239990,-0.62432861,-0.16235352,-0.55767822,-70.40332,-59.98920,-49.42803,6,69,1.158
605,28073,8.69922,-4.55859,3.33203,0.53222656,-0.61529541,-0.15405273,-0.56072998,-67.94431,-58.65029,-51.52360,6,69,1.158
606,28083,8.19922,-4.51953,3.56250,0.54217529,-0.60614014,-0.14569092,-0.56341553,-65.68876,-57.24359,-53.38800,6,69,1.158
607,28093,7.58594,-4.98047,3.48438,0.55328369,-0.59594727,-0.13647461,-0.56579590,-63.43874,-55.62558,-55.16376,6,69,1.158
608,28103,7.08594,-4.94141,3.64062,0.56408691,-0.58612061,-0.12780762,-0.56744385,-61.49645,-54.02981,-56.59387,6,69,1.158
609,28113,6.36328,-4.51953,3.67578,0.57446289,-0.57672119,-0.11993408,-0.56835938,-59.82057,-52.49876,-57.71271,6,69,1.158
610,28131,6.62891,-4.55859,4.32812,0.58398438,-0.56811523,-0.11364746,-0.56860352,-58.40207,-51.14965,-58.52103,6,69,1.158
611,28134,6.62891,-4.55859,4.32812,0.59350586,-0.55957031,-0.10833740,-0.56823730,-57.08227,-49.86574,-59.12910,6,69,1.158
612,28143,7.77734,-5.25000,5.17188,0.60290527,-0.55102539,-0.10357666,-0.56762695,-55.82140,-48.62577,-59.62990,6,69,1.158
613,28153,8.88672,-6.35938,5.85938,0.61285400,-0.54168701,-0.09893799,-0.56677246,-54.49912,-47.33006,-60.08817,6,69,1.158
614,28164,8.50391,-6.85547,6.16797,0.62249756,-0.53240967,-0.09454346,-0.56579590,-53.24026,-46.06747,-60.47705,6,69,1.158
615,28173,7.69531,-6.20703,6.28125,0.63287354,-0.52203369,-0.08978271,-0.56469727,-51.88506,-44.68671,-60.86858,6,69,1.158
616,28183,7.16797,-5.47656,6.62891,0.64270020,-0.51159668,-0.08496094,-0.56390381,-50.56077,-43.32935,-61.27631,6,69,1.158
617,28194,6.85547,-5.97656,7.35547,0.65142822,-0.50134277,-0.08032227,-0.56372070,-49.27573,-42.06135,-61.74235,6,69,1.158
618,28209,7.04688,-7.12500,7.77734,0.65893555,-0.49151611,-0.07604980,-0.56433105,-48.03727,-40.91624,-62.27844,6,69,1.158
619,28214,7.04688,-7.12500,7.77734,0.66644287,-0.48089600,-0.07104492,-0.56530762,-46.75006,-39.67155,-62.88854,6,69,1.158
620,28223,6.93359,-9.80859,7.89062,0.67346191,-0.47106934,-0.06457520,-0.56604004,-45.69801,-38.33427,-63.42848,6,69,1.158
621,28234,6.51172,-9.73047,7.42969,0.68054199,-0.46234131,-0.05596924,-0.56567383,-44.98646,-36.81533,-63.77488,6,69,1.158
622,28242,6.35938,-8.84766,7.20312,0.68768311,-0.45507812,-0.04547119,-0.56384277,-44.65110,-35.15077,-63.87585,6,69,1.158
623,28252,7.20312,-7.73828,7.92969,0.69470215,-0.44934082,-0.03356934,-0.56066895,-44.64800,-33.40181,-63.76473,6,69,1.158
624,28263,7.12891,-7.12500,6.74219,0.70208740,-0.44384766,-0.02111816,-0.55645752,-44.74378,-31.57463,-63.52349,6,69,1.158
625,28274,4.90234,-4.28906,6.40234,0.70983887,-0.43719482,-0.01025391,-0.55218506,-44.61784,-29.82617,-63.28623,6,69,1.158
626,28287,4.55859,-4.51953,5.93750,0.71728516,-0.42944336,-0.00238037,-0.54870605,-44.18548,-28.33913,-63.12757,6,69,1.158
627,28297,4.21484,-4.28906,6.24219,0.72503662,-0.41973877,0.00286865,-0.54602051,-43.36980,-27.01410,-63.05396,6,69,1.158
628,28304,4.90234,-5.28516,7.69922,0.73260498,-0.40899658,0.00640869,-0.54406738,-42.33634,-25.82580,-63.05178,6,69,1.158
629,28314,5.55469,-9.11719,8.69531,0.74023438,-0.39776611,0.00970459,-0.54205322,-41.25122,-24.63397,-63.03231,6,69,1.158
630,28322,5.25000,-10.45703,9.30859,0.74816895,-0.38659668,0.01422119,-0.53906250,-40.28033,-23.29829,-62.89843,6,69,1.158
631,28332,4.86328,-11.57031,9.53906,0.75573730,-0.37725830,0.02026367,-0.53491211,-39.63710,-21.89893,-62.60514,6,69,1.158
632,28342,3.79297,-11.64062,9.42188,0.76306152,-0.36956787,0.02789307,-0.52954102,-39.29438,-20.41529,-62.16241,6,69,1.158
633,28354,2.56641,-9.80469,8.69531,0.76977539,-0.36370850,0.03643799,-0.52331543,-39.22002,-18.93906,-61.61624,6,69,1.158
634,28367,2.45312,-8.46484,8.42578,0.77587891,-0.35919189,0.04534912,-0.51666260,-39.31458,-17.50506,-61.02402,6,69,1.158
635,28377,2.71875,-7.46875,8.35156,0.78137207,-0.35540771,0.05389404,-0.51013184,-39.45878,-16.16402,-60.44773,6,69,1.158
636,28382,2.71875,-7.46875,8.35156,0.78674316,-0.35144043,0.06170654,-0.50372314,-39.53229,-14.88963,-59.88290,6,69,1.158
637,28394,3.60156,-5.78516,8.23438,0.79217529,-0.34600830,0.06884766,-0.49798584,-39.39240,-13.62329,-59.41253,6,69,1.158
638,28402,3.48438,-6.08984,8.58203,0.79827881,-0.33801270,0.07543945,-0.49273682,-38.93108,-12.27845,-59.01553,6,69,1.158
639,28412,3.10156,-6.43750,9.26953,0.80426025,-0.32855225,0.08068848,-0.48858643,-38.22470,-11.02642,-58.72588,6,69,1.158
640,28422,3.10156,-7.69922,9.96094,0.81048584,-0.31744385,0.08575439,-0.48474121,-37.33039,-9.71533,-58.47734,6,69,1.158
641,28433,2.07031,-10.41797,10.79688,0.81665039,-0.30572510,0.09106445,-0.48095703,-36.38712,-8.35731,-58.23990,6,69,1.158
642,28449,1.60938,-10.72656,11.64453,0.82305908,-0.29302979,0.09735107,-0.47668457,-35.40122,-6.84099,-57.96993,6,69,1.158
643,28454,1.60938,-10.72656,11.64453,0.82958984,-0.27972412,0.10516357,-0.47161865,-34.44389,-5.12711,-57.64591,6,69,1.158
644,28464,0.34375,-12.60156,11.87500,0.83459473,-0.26904297,0.11291504,-0.46728516,-33.75842,-3.60976,-57.39284,6,69,1.158
645,28472,0.57422,-12.98438,12.14453,0.83929443,-0.25830078,0.12255859,-0.46240234,-33.17789,-1.89989,-57.13838,6,69,1.158
646,28482,0.80469,-11.87500,12.98438,0.84332275,-0.24859619,0.13458252,-0.45703125,-32.84168,-0.01372,-56.90612,6,69,1.158
647,28492,0.88281,-11.45312,12.83203,0.84600830,-0.24169922,0.14672852,-0.45202637,-32.80941,1.70526,-56.73369,6,69,1.158
648,28502,1.18750,-11.10938,12.68359,0.84802246,-0.23614502,0.16027832,-0.44647217,-33.00295,3.49601,-56.56833,6,69,1.158
649,28513,0.61328,-10.57422,12.71875,0.84954834,-0.23217773,0.17419434,-0.44049072,-33.38423,5.24573,-56.38748,7,67,1.119
650,28529,0.11328,-10.57422,12.18359,0.85070801,-0.22949219,0.18957520,-0.43316650,-33.98838,7.10781,-56.14370,7,67,1.119
651,28534,0.11328,-10.57422,12.18359,0.85162354,-0.22802734,0.20495605,-0.42504883,-34.71982,8.93163,-55.84520,7,67,1.119
652,28542,0.19141,-10.53516,11.87500,0.85235596,-0.22674561,0.22052002,-0.41656494,-35.48231,10.77774,-55.54884,7,67,1.119
653,28552,-0.69141,-10.30469,11.41797,0.85308838,-0.22570801,0.23559570,-0.40722656,-36.24156,12.59922,-55.17350,7,67,1.119
654,28563,-0.88281,-10.60938,10.87500,0.85400391,-0.22460938,0.24987793,-0.39715576,-36.94042,14.38271,-54.70831,7,67,1.119
655,28572,-1.10938,-10.41797,10.73047,0.85540771,-0.22277832,0.26391602,-0.38598633,-37.52868,16.23250,-54.12030,7,67,1.119
656,28582,-1.60938,-9.88281,10.53125,0.85705566,-0.22015381,0.27667236,-0.37469482,-37.94292,18.01584,-53.46746,7,67,1.119
657,28592,-1.33984,-7.54688,10.87500,0.85864258,-0.21771240,0.28863525,-0.36334229,-38.31572,19.72238,-52.78404,7,67,1.119
658,28607,-0.95703,-6.89453,10.99609,0.85974121,-0.21655273,0.30078125,-0.35137939,-38.82940,21.40811,-52.08295,7,67,1.119
659,28612,-0.95703,-6.89453,10.99609,0.86022949,-0.21759033,0.31372070,-0.33807373,-39.61613,23.11631,-51.33571,7,67,1.119
660,28622,-0.84375,-6.01562,10.11328,0.85925293,-0.21978760,0.32739258,-0.32586670,-40.62511,24.79572,-50.84177,7,67,1.119
661,28632,0.30469,-4.67188,9.60938,0.85717773,-0.22332764,0.34118652,-0.31457520,-41.83677,26.38564,-50.54536,7,67,1.119
662,28642,0.49609,-5.40234,8.77734,0.85388184,-0.22790527,0.35626221,-0.30334473,-43.30499,28.04377,-50.43930,7,67,1.119
663,28652,0.53516,-6.01562,8.35547,0.84973145,-0.23236084,0.37182617,-0.29272461,-44.86419,29.72783,-50.52217,7,67,1.119
664,28663,0.76562,-5.13281,7.20312,0.84490967,-0.23638916,0.38830566,-0.28186035,-46.50666,31.52833,-50.72998,7,67,1.119
665,28672,0.53516,-5.55469,6.58594,0.83947754,-0.24005127,0.40539551,-0.27075195,-48.22930,33.41179,-51.05474,7,67,1.119
666,28687,0.19141,-5.51562,6.04688,0.83337402,-0.24310303,0.42358398,-0.25866699,-50.05245,35.46990,-51.47128,7,67,1.119
667,28692,0.19141,-5.51562,6.04688,0.82684326,-0.24591064,0.44262695,-0.24487305,-51.99076,37.69937,-51.89710,7,67,1.119
668,28704,-0.46094,-3.48438,3.82812,0.82012939,-0.24749756,0.46105957,-0.23144531,-53.85845,39.91767,-52.42279,7,67,1.119
669,28712,-0.49609,-2.64453,3.56250,0.81311035,-0.24829102,0.47943115,-0.21765137,-55.75003,42.18785,-53.03415,7,67,1.119
670,28721,-0.69141,-2.18359,2.90625,0.80590820,-0.24853516,0.49707031,-0.20397949,-57.64523,44.41360,-53.72827,7,67,1.119
671,28732,-0.61328,-1.75781,1.60938,0.79870605,-0.24822998,0.51391602,-0.19073486,-59.53350,46.57003,-54.51739,7,67,1.119
672,28742,-0.61328,-1.75781,1.60938,0.79180908,-0.24761963,0.52899170,-0.17858887,-61.33214,48.52754,-55.34854,7,67,1.119
673,28755,-1.95312,-0.19141,0.00000,0.78472900,-0.24768066,0.54327393,-0.16656494,-63.25833,50.36361,-56.26765,7,67,1.119
674,28762,-2.30078,-0.15234,-0.69141,0.77807617,-0.24847412,0.55554199,-0.15563965,-65.14164,51.92173,-57.17765,7,67,1.119
675,28772,-2.17969,-0.03906,-0.72656,0.77252197,-0.25067139,0.56469727,-0.14660645,-66.83485,53.03278,-57.93506,7,67,1.119
676,28783,-2.33594,-1.10938,-0.91797,0.76770020,-0.25415039,0.57177734,-0.13836670,-68.41450,53.85729,-58.53382,7,67,1.119
677,28791,-2.33984,-1.45703,-0.91797,0.76391602,-0.25756836,0.57684326,-0.13159180,-69.69370,54.44457,-58.95829,7,67,1.119
678,28801,-2.17969,-1.60938,-0.69141,0.76116943,-0.26062012,0.58032227,-0.12615967,-70.66431,54.85464,-59.21680,7,67,1.119
679,28812,-2.94922,-1.95312,-1.07422,0.75976562,-0.26257324,0.58215332,-0.12219238,-71.19350,55.12618,-59.24929,7,67,1.119
680,28823,-3.10547,-0.99609,-0.65234,0.75970459,-0.26330566,0.58239746,-0.11962891,-71.26527,55.27741,-59.04438,7,67,1.119
681,28832,-3.02344,-0.61328,-0.46094,0.76043701,-0.26354980,0.58154297,-0.11865234,-71.08005,55.27718,-58.75501,7,67,1.119
682,28841,-2.98828,-0.42188,-0.38281,0.76177979,-0.26354980,0.57977295,-0.11877441,-70.70236,55.15530,-58.38373,7,67,1.119
683,28851,-3.06641,-0.11328,-0.03906,0.76336670,-0.26330566,0.57745361,-0.11999512,-70.22591,54.93497,-58.02437,7,67,1.119
684,28863,-3.71094,-0.99609,-0.07812,0.76501465,-0.26336670,0.57482910,-0.12213135,-69.75800,54.60835,-57.72313,7,67,1.119
685,28871,-3.64062,-1.80078,0.23047,0.76721191,-0.26306152,0.57147217,-0.12487793,-69.11960,54.21208,-57.33280,7,67,1.119
686,28881,-4.17578,-2.03125,0.57422,0.77020264,-0.26232910,0.56695557,-0.12872314,-68.24304,53.68525,-56.83118,7,67,1.119
687,28891,-4.33203,-2.64453,0.95703,0.77349854,-0.26116943,0.56201172,-0.13281250,-67.26328,53.13514,-56.28352,7,67,1.119
688,28902,-4.02344,-4.13672,1.99219,0.77697754,-0.25976562,0.55688477,-0.13671875,-66.23540,52.59449,-55.69434,7,67,1.119
689,28911,-4.02344,-4.75000,2.29688,0.78082275,-0.25793457,0.55139160,-0.14038086,-65.10058,52.06385,-55.01522,7,67,1.119
690,28921,-4.02344,-5.13281,2.60547,0.78497314,-0.25579834,0.54565430,-0.14361572,-63.89012,51.55363,-54.25192,7,67,1.119
691,28931,-4.36719,-5.05859,2.67969,0.78918457,-0.25354004,0.53985596,-0.14624023,-62.66544,51.07731,-53.43394,7,67,1.119
692,28942,-5.59375,-3.75391,2.87109,0.79357910,-0.25158691,0.53363037,-0.14880371,-61.43517,50.54344,-52.57852,7,67,1.119
693,28951,-5.55469,-3.67578,2.41406,0.79852295,-0.25036621,0.52593994,-0.15191650,-60.12988,49.80660,-51.62772,7,67,1.119
694,28961,-5.28125,-3.41016,2.67969,0.80401611,-0.24963379,0.51654053,-0.15631104,-58.73757,48.81333,-50.65291,7,67,1.119
695,28971,-5.28125,-3.33203,2.56641,0.80981445,-0.24908447,0.50592041,-0.16198730,-57.31277,47.61895,-49.73824,7,67,1.119
696,28986,-4.83203,-4.25391,3.48438,0.81555176,-0.24865723,0.49468994,-0.16839600,-55.93233,46.31291,-48.92157,7,67,1.119
697,28991,-4.83203,-4.25391,3.48438,0.82165527,-0.24822998,0.48205566,-0.17584229,-54.49009,44.81700,-48.13400,7,67,1.119
698,29000,-4.09766,-5.39844,4.90234,0.82745361,-0.24786377,0.46917725,-0.18377686,-53.13576,43.26155,-47.47659,7,67,1.119
699,29011,-4.02344,-6.28516,5.66797,0.83270264,-0.24755859,0.45648193,-0.19226074,-51.91250,41.68412,-47.00026,7,67,1.119
700,29021,-3.98438,-7.23438,6.97266,0.83679199,-0.24737549,0.44567871,-0.19989014,-50.95229,40.31461,-46.71130,7,67,1.119
701,29031,-4.06250,-7.08594,7.12891,0.84039307,-0.24707031,0.43536377,-0.20776367,-50.07971,38.98240,-46.55021,7,67,1.119
702,29041,-4.51953,-6.85547,7.12891,0.84350586,-0.24645996,0.42572021,-0.21569824,-49.27517,37.72470,-46.49840,7,67,1.119
703,29051,-4.98047,-5.78516,7.12500,0.84606934,-0.24621582,0.41662598,-0.22344971,-48.59437,36.51103,-46.52853,7,67,1.119
704,29066,-6.12891,-7.65625,6.43750,0.84838867,-0.24664307,0.40740967,-0.23107910,-48.00037,35.26149,-46.58024,7,67,1.119
705,29071,-6.12891,-7.65625,6.43750,0.85107422,-0.24743652,0.39630127,-0.23962402,-47.32227,33.77723,-46.60458,7,67,1.119
706,29080,-4.75000,-6.78125,7.05078,0.85369873,-0.24859619,0.38458252,-0.24798584,-46.65738,32.23122,-46.60089,7,67,1.119
707,29091,-4.21484,-6.66406,7.16797,0.85620117,-0.25036621,0.37145996,-0.25738525,-46.00055,30.47824,-46.65570,7,67,1.119
708,29102,-3.37109,-6.70312,7.47266,0.85815430,-0.25262451,0.35882568,-0.26647949,-45.46013,28.76445,-46.76467,7,67,1.119
709,29111,-2.26172,-6.85547,7.81641,0.85980225,-0.25543213,0.34497070,-0.27661133,-44.93481,26.86510,-46.94905,7,67,1.119
710,29121,-1.60938,-7.31641,7.96875,0.86083984,-0.25805664,0.33197021,-0.28668213,-44.47209,25.06040,-47.22158,7,67,1.119
711,29131,-1.68359,-7.16406,8.08203,0.86126709,-0.26000977,0.31951904,-0.29760742,-44.00325,23.30350,-47.65075,7,67,1.119
712,29150,-1.99219,-7.04688,7.96875,0.86120605,-0.26086426,0.30761719,-0.30932617,-43.47212,21.61979,-48.22061,7,67,1.119
713,29154,-1.99219,-7.04688,7.96875,0.86096191,-0.26031494,0.29589844,-0.32159424,-42.80930,20.00388,-48.87359,7,67,1.119
714,29161,-1.83984,-7.12500,8.15625,0.86077881,-0.25823975,0.28314209,-0.33489990,-41.92468,18.33006,-49.59260,7,67,1.119
715,29171,-2.22266,-7.01172,8.46484,0.86077881,-0.25518799,0.26983643,-0.34808350,-40.89442,16.67099,-50.28858,7,67,1.119
716,29182,-1.64844,-7.20312,9.34766,0.86077881,-0.25170898,0.25610352,-0.36071777,-39.79044,15.02878,-50.93937,7,67,1.119
717,29190,-1.49219,-7.01172,9.88281,0.86077881,-0.24829102,0.24163818,-0.37280273,-38.64631,13.34867,-51.53415,7,67,1.119
718,29201,-1.33984,-7.23828,10.18750,0.86053467,-0.24597168,0.22717285,-0.38391113,-37.61473,11.66062,-52.06969,7,67,1.119
719,29212,-2.87109,-7.23828,10.07422,0.85992432,-0.24456787,0.21282959,-0.39428711,-36.68770,9.97203,-52.57806,7,67,1.119
720,29227,-1.72266,-8.31250,9.96484,0.85900879,-0.24346924,0.19805908,-0.40447998,-35.77031,8.23951,-53.09156,7,67,1.119
721,29234,-0.91797,-8.39062,10.38281,0.85772705,-0.24255371,0.18103027,-0.41552734,-34.74683,6.25639,-53.65510,7,67,1.119
722,29241,-0.46094,-8.31250,10.64844,0.85595703,-0.24200439,0.16247559,-0.42700195,-33.67540,4.09869,-54.26636,7,67,1.119
723,29252,0.76562,-8.35156,10.76953,0.85375977,-0.24200439,0.14447021,-0.43780518,-32.68667,1.99335,-54.88179,7,67,1.119
724,29260,1.18750,-7.66016,10.65234,0.85107422,-0.24224854,0.12603760,-0.44848633,-31.69368,-0.15788,-55.53051,7,67,1.119
725,29270,1.18750,-6.78125,10.68750,0.84808350,-0.24218750,0.10791016,-0.45874023,-30.67674,-2.24480,-56.20335,7,67,1.119
726,29280,1.41797,-6.24219,10.45703,0.84484863,-0.24127197,0.08886719,-0.46917725,-29.50476,-4.37245,-56.93835,7,67,1.119
727,29292,2.26172,-5.17188,10.22656,0.84185791,-0.23895264,0.06939697,-0.47894287,-28.14869,-6.43302,-57.65772,7,67,1.119
728,29305,3.02734,-5.89844,11.95312,0.83941650,-0.23431396,0.04901123,-0.48791504,-26.48800,-8.41668,-58.35072,7,67,1.119
729,29315,3.21875,-12.21875,14.40234,0.83911133,-0.22442627,0.02764893,-0.49475098,-24.22808,-10.11742,-58.87133,7,67,1.119
730,29323,3.10156,-9.42188,16.81641,0.84020996,-0.21209717,0.00665283,-0.49896240,-21.75235,-11.56552,-59.17881,7,67,1.119
731,29333,2.56641,-1.03516,13.48828,0.84051514,-0.20587158,-0.00939941,-0.50109863,-20.19819,-12.83337,-59.31008,7,67,1.119
732,29340,2.26172,-3.71484,12.37891,0.83905029,-0.20434570,-0.02404785,-0.50366211,-19.19619,-14.25235,-59.52854,7,67,1.119
733,29350,2.87109,-6.70312,12.64453,0.83825684,-0.20135498,-0.03771973,-0.50537109,-18.10109,-15.47064,-59.69115,7,67,1.119
734,29361,2.87109,-6.70312,12.64453,0.83764648,-0.19860840,-0.05236816,-0.50616455,-16.98662,-16.78475,-59.76244,7,67,1.119
735,29374,2.48828,-8.69531,15.13281,0.83691406,-0.19744873,-0.06756592,-0.50598145,-16.02051,-18.23448,-59.72517,7,67,1.119
736,29381,2.71875,-8.81250,14.78516,0.83508301,-0.19958496,-0.08209229,-0.50604248,-15.42714,-19.82201,-59.71852,7,67,1.119
737,29390,3.41016,-8.46484,15.05859,0.83148193,-0.20513916,-0.09759521,-0.50701904,-15.11144,-21.73427,-59.83048,7,67,1.119
738,29400,4.02344,-7.73828,15.24609,0.82659912,-0.21295166,-0.11169434,-0.50885010,-15.08541,-23.66362,-60.05465,7,67,1.119
739,29412,4.63672,-4.86328,14.13281,0.82080078,-0.22277832,-0.12414551,-0.51110840,-15.35091,-25.56472,-60.31805,8,67,1.109
740,29420,5.09375,-4.25391,13.32812,0.81323242,-0.23577881,-0.13714600,-0.51403809,-15.90149,-27.74063,-60.64303,8,67,1.109
741,29430,5.40234,-4.09766,12.90625,0.80621338,-0.24792480,-0.14813232,-0.51635742,-16.49864,-29.66189,-60.87994,8,67,1.109
742,29441,5.40234,-4.09766,12.90625,0.79925537,-0.26025391,-0.15881348,-0.51794434,-17.16742,-31.56354,-61.00353,8,67,1.109
743,29454,7.23828,-5.55469,13.79297,0.79241943,-0.27343750,-0.16876221,-0.51849365,-18.03404,-33.43598,-60.93715,8,67,1.109
744,29461,7.46875,-6.32031,13.90625,0.78643799,-0.28692627,-0.17608643,-0.51782227,-19.17673,-35.03943,-60.61999,8,67,1.109
745,29470,7.66016,-7.23828,14.21484,0.78100586,-0.30181885,-0.18035889,-0.51611328,-20.75623,-36.39067,-60.02625,8,67,1.109
746,29480,7.01172,-8.04297,14.29297,0.77636719,-0.31750488,-0.18078613,-0.51361084,-22.74337,-37.36132,-59.19352,8,67,1.109
747,29491,3.90625,-6.35938,12.64062,0.77215576,-0.33386230,-0.17822266,-0.51043701,-25.06025,-38.02927,-58.17439,8,67,1.109
748,29499,2.37500,-4.02344,11.57031,0.76745605,-0.35180664,-0.17419434,-0.50683594,-27.71521,-38.60883,-57.00495,8,67,1.109
749,29510,0.84375,-1.95312,10.57031,0.76141357,-0.37103271,-0.17016602,-0.50366211,-30.55283,-39.26095,-55.83955,8,67,1.109
750,29520,0.84375,-1.95312,10.57031,0.75335693,-0.39068604,-0.16650391,-0.50213623,-33.39235,-40.03078,-54.89850,8,67,1.109
751,29533,0.61328,-0.38281,7.73438,0.74194336,-0.41333008,-0.16247559,-0.50231934,-36.62279,-41.01932,-54.08427,8,67,1.109
752,29540,1.30078,-0.80469,6.78516,0.72772217,-0.43756104,-0.15814209,-0.50390625,-40.09896,-42.15719,-53.38681,8,67,1.109
753,29550,2.87109,-1.30078,6.62891,0.71136475,-0.46264648,-0.15344238,-0.50628662,-43.77744,-43.37758,-52.72247,8,67,1.109
754,29560,2.75781,-0.61328,6.16406,0.69458008,-0.48620605,-0.14910889,-0.50885010,-47.32889,-44.58353,-52.08318,8,67,1.109
755,29570,3.52344,1.14844,3.10156,0.67736816,-0.50775146,-0.14538574,-0.51208496,-50.63840,-45.80553,-51.57183,8,67,1.109
756,29585,1.91797,1.87891,0.84375,0.65863037,-0.52801514,-0.14300537,-0.51666260,-53.76037,-47.22261,-51.23781,8,67,1.109
757,29590,1.91797,1.87891,0.84375,0.63800049,-0.54760742,-0.14324951,-0.52209473,-56.80966,-48.98833,-50.90578,8,67,1.109
758,29600,0.91797,0.07812,-0.88281,0.61663818,-0.56530762,-0.14654541,-0.52795410,-59.62506,-51.04349,-50.53872,8,67,1.109
759,29610,2.71875,-0.84375,0.80469,0.59692383,-0.58020020,-0.15319824,-0.53253174,-62.14669,-53.21014,-49.88340,8,67,1.109
760,29619,3.02344,-1.45703,1.41797,0.57672119,-0.59460449,-0.16180420,-0.53637695,-64.84412,-55.53387,-48.86720,8,67,1.109
761,29630,3.36719,-2.60547,1.57031,0.55749512,-0.60778809,-0.16961670,-0.53948975,-67.62103,-57.66011,-47.64827,8,67,1.109
762,29640,3.36719,-2.60547,1.57031,0.54022217,-0.61944580,-0.17620850,-0.54162598,-70.39085,-59.47783,-46.25645,8,67,1.109
763,29653,3.71484,-4.67578,1.30078,0.52429199,-0.63031006,-0.18176270,-0.54296875,-73.26633,-61.05070,-44.65637,8,67,1.109
764,29660,3.64062,-4.82812,1.37891,0.51092529,-0.63958740,-0.18566895,-0.54351807,-75.96638,-62.24897,-43.05578,8,67,1.109
765,29670,3.98438,-5.28125,1.60938,0.50073242,-0.64709473,-0.18780518,-0.54339600,-78.29075,-63.04018,-41.62212,8,67,1.109
766,29681,3.71484,-5.05469,1.72266,0.49359131,-0.65307617,-0.18853760,-0.54254150,-80.21192,-63.47356,-40.37646,8,67,1.109
767,29690,4.02344,-4.28906,1.87891,0.48876953,-0.65789795,-0.18762207,-0.54132080,-81.73775,-63.60045,-39.41392,8,67,1.109
768,29699,4.25391,-3.94531,1.83984,0.48565674,-0.66174316,-0.18518066,-0.54034424,-82.83563,-63.50580,-38.83605,8,67,1.109
769,29710,4.63281,-3.94531,1.68359,0.48376465,-0.66455078,-0.18145752,-0.53985596,-83.50214,-63.26089,-38.67206,8,67,1.109
770,29721,5.47656,-3.75391,1.30078,0.48315430,-0.66644287,-0.17675781,-0.53961182,-83.80085,-62.87778,-38.82720,8,67,1.109
771,29730,5.55859,-3.56250,1.10938,0.48364258,-0.66754150,-0.17126465,-0.53961182,-83.79002,-62.38199,-39.24837,8,67,1.109
772,29739,5.70312,-3.56250,0.95703,0.48510742,-0.66790771,-0.16503906,-0.53973389,-83.52774,-61.77842,-39.87972,9,61,1.023
773,29750,5.97656,-3.67578,0.95703,0.48767090,-0.66754150,-0.15808105,-0.53991699,-83.02952,-61.05378,-40.69450,9,61,1.023
774,29761,6.08984,-4.02344,1.03516,0.49108887,-0.66668701,-0.15045166,-0.54016113,-82.38258,-60.22291,-41.62868,9,61,1.023
775,29770,6.32031,-3.86719,1.45703,0.49517822,-0.66516113,-0.14208984,-0.54052734,-81.58336,-59.29358,-42.69915,9,61,1.023
776,29779,6.20312,-3.90625,1.64844,0.49987793,-0.66284180,-0.13403320,-0.54107666,-80.64054,-58.35617,-43.82227,9,61,1.023
777,29790,6.66406,-3.83203,1.72266,0.50482178,-0.65985107,-0.12561035,-0.54223633,-79.55693,-57.39154,-45.09374,9,61,1.023
778,29806,6.96875,-4.28906,1.91406,0.50952148,-0.65631104,-0.11730957,-0.54394531,-78.41090,-56.46441,-46.43769,9,61,1.023
779,29813,6.32422,-4.02344,2.14453,0.51483154,-0.65179443,-0.10852051,-0.54620361,-77.07838,-55.46321,-47.94317,9,61,1.023
780,29820,5.59375,-3.71484,1.91406,0.52075195,-0.64630127,-0.09960938,-0.54882812,-75.59892,-54.40408,-49.53571,9,61,1.023
781,29829,5.28516,-3.75391,2.18359,0.52764893,-0.63970947,-0.09075928,-0.55151367,-73.97752,-53.25999,-51.15147,9,61,1.023
782,29841,5.51562,-5.94141,2.56641,0.53497314,-0.63269043,-0.08325195,-0.55371094,-72.39373,-52.15883,-52.55889,9,61,1.023
783,29849,5.74609,-7.16406,2.98828,0.54370117,-0.62487793,-0.07604980,-0.55511475,-70.77551,-50.93574,-53.80614,9,61,1.023
784,29859,5.74609,-7.69922,3.64062,0.55413818,-0.61621094,-0.06866455,-0.55541992,-69.14370,-49.51868,-54.86884,9,61,1.023
785,29869,6.51172,-9.00000,4.48047,0.56506348,-0.60772705,-0.06121826,-0.55462646,-67.70023,-48.01474,-55.66777,9,61,1.023
786,29884,7.77734,-10.68750,5.59375,0.57653809,-0.59936523,-0.05297852,-0.55279541,-66.43172,-46.36275,-56.26573,9,61,1.023
787,29892,7.46875,-9.88281,5.36328,0.58935547,-0.59039307,-0.04260254,-0.54980469,-65.24805,-44.38008,-56.75687,9,61,1.023
788,29899,7.42969,-8.88281,5.17188,0.60314941,-0.58093262,-0.03027344,-0.54571533,-64.17229,-42.11113,-57.13668,9,61,1.023
789,29909,7.54688,-8.03906,5.44141,0.61517334,-0.57244873,-0.01910400,-0.54174805,-63.29692,-40.07246,-57.40007,9,61,1.023
790,29920,6.89453,-6.32031,5.51562,0.62658691,-0.56402588,-0.00805664,-0.53778076,-62.48763,-38.07810,-57.62826,9,61,1.023
791,29929,6.46875,-6.35938,4.86328,0.63787842,-0.55517578,0.00323486,-0.53369141,-61.68366,-36.04992,-57.84502,9,61,1.023
792,29939,6.16797,-6.28516,4.82812,0.64947510,-0.54553223,0.01391602,-0.52947998,-60.79408,-34.03088,-58.02182,9,61,1.023
793,29949,6.16797,-6.12891,4.90234,0.66064453,-0.53540039,0.02203369,-0.52575684,-59.76953,-32.26679,-58.15091,9,61,1.023
794,29964,6.32031,-6.28125,6.44141,0.67169189,-0.52416992,0.02758789,-0.52282715,-58.51053,-30.73195,-58.29049,9,61,1.023
795,29969,6.32031,-6.28125,6.44141,0.68353271,-0.51074219,0.03149414,-0.52050781,-56.91318,-29.25114,-58.47814,9,61,1.023
796,29978,7.20312,-11.57422,8.23438,0.69543457,-0.49633789,0.03521729,-0.51843262,-55.21959,-27.75269,-58.68376,9,61,1.023
797,29989,7.08594,-14.29297,8.77344,0.70794678,-0.48107910,0.04040527,-0.51550293,-53.55088,-26.02639,-58.81833,9,61,1.023
798,29999,5.21094,-14.40234,9.07812,0.72003174,-0.46691895,0.04730225,-0.51116943,-52.17933,-24.15679,-58.78026,9,61,1.023
799,30009,4.32812,-11.83984,9.03906,0.73278809,-0.45281982,0.05688477,-0.50476074,-51.02062,-21.94684,-58.54706,9,61,1.023
800,30019,3.67578,-9.11719,7.96875,0.74389648,-0.44110107,0.06811523,-0.49743652,-50.27605,-19.72380,-58.21343,9,61,1.023
801,30029,3.64062,-8.04297,7.54688,0.75274658,-0.43212891,0.07971191,-0.49017334,-49.89194,-17.67603,-57.86911,9,61,1.023
802,30044,3.75391,-6.51172,6.62500,0.75988770,-0.42468262,0.09051514,-0.48376465,-49.64178,-15.86243,-57.59030,9,61,1.023
803,30049,3.75391,-6.51172,6.62500,0.76666260,-0.41668701,0.10083008,-0.47796631,-49.30144,-14.10591,-57.38271,9,61,1.023
804,30058,3.33203,-5.05469,5.93750,0.77258301,-0.40814209,0.10894775,-0.47393799,-48.77539,-12.62308,-57.31247,9,61,1.023
805,30069,2.94922,-4.78906,5.70703,0.77819824,-0.39819336,0.11389160,-0.47204590,-47.91080,-11.45982,-57.37579,9,61,1.023
806,30080,2.33594,-6.01562,6.40234,0.78326416,-0.38763428,0.11584473,-0.47210693,-46.81044,-10.63333,-57.54499,9,61,1.023
807,30089,2.37500,-7.85547,7.66016,0.78863525,-0.37512207,0.11639404,-0.47308350,-45.42388,-9.86575,-57.77930,9,61,1.023
808,30098,2.41406,-9.61328,8.69531,0.79351807,-0.36267090,0.11566162,-0.47485352,-43.98067,-9.25691,-58.04888,9,61,1.023
809,30109,2.48828,-11.18750,9.23047,0.79809570,-0.35101318,0.11560059,-0.47583008,-42.68414,-8.59986,-58.24179,9,61,1.023
810,30128,1.99219,-12.44531,9.61328,0.80291748,-0.33996582,0.11700439,-0.47546387,-41.55152,-7.78128,-58.30956,9,61,1.023
811,30132,1.99219,-12.44531,9.61328,0.80798340,-0.32946777,0.11975098,-0.47357178,-40.57315,-6.80785,-58.23143,9,61,1.023
812,30140,1.37891,-11.98828,9.38672,0.81378174,-0.31842041,0.12359619,-0.47021484,-39.61039,-5.64073,-58.00709,9,61,1.023
813,30149,1.22656,-8.84766,9.58203,0.81903076,-0.30828857,0.12774658,-0.46667480,-38.76929,-4.50164,-57.76340,9,61,1.023
814,30160,0.99609,-7.39453,9.57812,0.82348633,-0.29919434,0.13220215,-0.46350098,-38.05658,-3.41817,-57.56698,9,61,1.023
815,30168,1.64844,-7.39453,9.76562,0.82769775,-0.28967285,0.13751221,-0.46051025,-37.34812,-2.24419,-57.42236,9,61,1.023
816,30178,1.87891,-7.50781,9.80859,0.83074951,-0.28155518,0.14257812,-0.45855713,-36.77596,-1.22189,-57.38944,9,61,1.023
817,30189,1.64844,-7.35547,9.80859,0.83331299,-0.27307129,0.14788818,-0.45739746,-36.18269,-0.19078,-57.46159,9,61,1.023
818,30208,0.69141,-8.27344,9.76562,0.83563232,-0.26385498,0.15325928,-0.45672607,-35.52372,0.86624,-57.59629,9,61,1.023
819,30212,0.69141,-8.27344,9.76562,0.83789062,-0.25427246,0.15808105,-0.45635986,-34.80003,1.88140,-57.73978,9,61,1.023
820,30219,0.61328,-8.61719,9.76953,0.84045410,-0.24359131,0.16308594,-0.45574951,-33.97726,2.98641,-57.85150,9,61,1.023
821,30229,-0.80469,-7.73828,10.07422,0.84301758,-0.23248291,0.16845703,-0.45483398,-33.13861,4.16011,-57.93471,9,61,1.023
822,30240,-1.99219,-9.23047,10.15234,0.84533691,-0.22277832,0.17297363,-0.45367432,-32.39824,5.18130,-57.94918,9,61,1.023
823,30248,-1.91406,-9.61328,10.57422,0.84796143,-0.21319580,0.17669678,-0.45202637,-31.62053,6.13777,-57.86138,9,61,1.023
824,30258,-1.14844,-9.65234,11.03125,0.85052490,-0.20458984,0.17938232,-0.45013428,-30.88074,6.94674,-57.70032,9,61,1.023
825,30270,-0.23047,-9.65234,12.06250,0.85327148,-0.19580078,0.18188477,-0.44775391,-30.10788,7.76188,-57.46704,9,61,1.023
826,30278,-0.26953,-9.00391,12.44531,0.85577393,-0.18688965,0.18499756,-0.44549561,-29.35856,8.63388,-57.26655,9,61,1.023
827,30288,-0.80469,-8.81250,12.52344,0.85797119,-0.17871094,0.18865967,-0.44317627,-28.71573,9.51582,-57.07734,9,61,1.023
828,30299,-0.80469,-8.81250,12.52344,0.85986328,-0.17175293,0.19293213,-0.44036865,-28.23292,10.40001,-56.85965,9,61,1.023
829,30312,-1.33984,-8.58203,12.91016,0.86132812,-0.16656494,0.19854736,-0.43695068,-28.00889,11.33073,-56.63192,9,61,1.023
830,30319,-1.83984,-8.39062,12.64062,0.86230469,-0.16357422,0.20507812,-0.43316650,-28.06352,12.23762,-56.41337,9,61,1.023
831,30328,-2.07031,-8.08203,12.52734,0.86273193,-0.16290283,0.21234131,-0.42901611,-28.40226,13.09782,-56.20824,10,60,1.003
832,30338,-2.10547,-7.69922,12.25781,0.86273193,-0.16436768,0.21972656,-0.42474365,-28.97036,13.85701,-56.02047,10,60,1.003
833,30350,-2.14453,-7.12500,11.60156,0.86230469,-0.16784668,0.22692871,-0.42041016,-29.74014,14.49164,-55.84940,10,60,1.003
834,30358,-1.37891,-7.23828,11.67969,0.86145020,-0.17358398,0.23437500,-0.41577148,-30.76135,15.03776,-55.68647,10,60,1.003
835,30368,-0.57422,-6.66406,11.57422,0.86016846,-0.17968750,0.24163818,-0.41162109,-31.82367,15.53180,-55.59843,10,60,1.003
836,30378,0.00000,-5.51562,11.18750,0.85839844,-0.18756104,0.24981689,-0.40686035,-33.13225,16.03775,-55.51899,10,60,1.003
837,30389,0.42188,-5.85938,9.88672,0.85638428,-0.19592285,0.25830078,-0.40191650,-34.51817,16.55347,-55.45844,10,60,1.003
838,30405,0.38281,-5.97656,9.69141,0.85400391,-0.20446777,0.26776123,-0.39642334,-35.99660,17.17153,-55.41731,10,60,1.003
839,30410,0.38281,-5.97656,9.69141,0.85186768,-0.21264648,0.27746582,-0.39001465,-37.44960,17.87005,-55.30102,10,60,1.003
840,30418,-0.11328,-6.51172,9.42188,0.84942627,-0.22045898,0.28808594,-0.38323975,-38.93837,18.68956,-55.22611,10,60,1.003
841,30428,0.30469,-8.23438,9.96484,0.84692383,-0.22827148,0.30004883,-0.37493896,-40.51725,19.69800,-55.09139,10,60,1.003
842,30439,1.83984,-8.16016,10.41406,0.84423828,-0.23577881,0.31402588,-0.36474609,-42.20479,20.99172,-54.91168,10,60,1.003
843,30448,1.41797,-8.46484,10.26562,0.84100342,-0.24322510,0.33154297,-0.35156250,-44.13971,22.74649,-54.69742,10,60,1.003
844,30458,0.80469,-7.77734,10.34766,0.83703613,-0.25024414,0.35137939,-0.33654785,-46.23366,24.82216,-54.54081,10,60,1.003
845,30469,2.10547,-4.06250,9.19922,0.83172607,-0.25775146,0.37304688,-0.32043457,-48.59642,27.08678,-54.55313,10,60,1.003
846,30485,2.79688,-2.07031,7.89062,0.82446289,-0.26623535,0.39721680,-0.30267334,-51.38532,29.59132,-54.80213,10,60,1.003
847,30490,2.79688,-2.07031,7.89062,0.81506348,-0.27575684,0.42327881,-0.28363037,-54.62901,32.24780,-55.35759,10,60,1.003
848,30498,2.60547,0.19141,6.55078,0.80303955,-0.28643799,0.45056152,-0.26477051,-58.39276,34.88565,-56.41233,10,60,1.003
849,30508,0.80469,1.07422,3.02344,0.78900146,-0.29760742,0.47760010,-0.24664307,-62.52747,37.36076,-57.91912,10,60,1.003
850,30523,-0.61328,-2.03516,-0.26953,0.77532959,-0.30639648,0.50164795,-0.23107910,-66.39034,39.51211,-59.63943,10,60,1.003
851,30528,-0.61328,-2.03516,-0.26953,0.76312256,-0.31146240,0.52233887,-0.21856689,-69.70184,41.38256,-61.43511,10,60,1.003
852,30539,-0.76562,-2.03125,0.99609,0.75262451,-0.31378174,0.53961182,-0.20965576,-72.46299,42.89455,-63.24932,10,60,1.003
853,30548,-1.37891,-2.18359,0.19141,0.74249268,-0.31622314,0.55499268,-0.20159912,-75.14359,44.16197,-65.04643,10,60,1.003
854,30557,-0.84375,-1.76172,-0.15234,0.73309326,-0.31860352,0.56835938,-0.19494629,-77.64272,45.16342,-66.78741,10,60,1.003
855,30568,-0.49609,-0.57031,-0.49609,0.72497559,-0.32067871,0.57916260,-0.19012451,-79.78487,45.87470,-68.35146,10,60,1.003
856,30578,-0.42188,-0.19141,-0.80859,0.71771240,-0.32281494,0.58801270,-0.18688965,-81.66653,46.33435,-69.78042,10,60,1.003
857,30588,-0.95703,0.57422,-1.75781,0.71118164,-0.32525635,0.59509277,-0.18505859,-83.31008,46.55953,-71.05828,10,60,1.003
858,30603,-1.72266,0.34375,-2.52344,0.70501709,-0.32849121,0.60083008,-0.18450928,-84.81173,46.54998,-72.22776,10,60,1.003
859,30608,-1.72266,0.34375,-2.52344,0.69958496,-0.33294678,0.60449219,-0.18536377,-86.06046,46.24665,-73.14703,10,60,1.003
860,30618,-2.67969,0.11328,-3.02344,0.69555664,-0.33764648,0.60583496,-0.18737793,-86.88901,45.74864,-73.71573,10,60,1.003
861,30628,-2.52734,-0.11328,-3.41016,0.69287109,-0.34240723,0.60546875,-0.19012451,-87.36904,45.13624,-73.98969,10,60,1.003
862,30637,-2.37500,-0.61328,-3.48828,0.69152832,-0.34680176,0.60339355,-0.19342041,-87.48920,44.45796,-73.97897,10,60,1.003
863,30648,-1.87891,-0.57422,-3.48828,0.69171143,-0.35009766,0.60021973,-0.19677734,-87.27036,43.83330,-73.73449,10,60,1.003
864,30657,-2.79688,-0.42188,-3.44531,0.69329834,-0.35272217,0.59545898,-0.20098877,-86.69429,43.14487,-73.26453,11,58,0.966
865,30668,-2.76172,-1.60938,-2.52734,0.69653320,-0.35437012,0.58862305,-0.20666504,-85.66895,42.34322,-72.55630,11,58,0.966
866,30677,-2.60156,-1.53125,-1.87891,0.70159912,-0.35546875,0.57928467,-0.21405029,-84.17916,41.35199,-71.57849,11,58,0.966
867,30687,-2.33984,-1.22656,-0.95703,0.70831299,-0.35559082,0.56781006,-0.22229004,-82.29791,40.26345,-70.37121,11,58,0.966
868,30699,-3.02734,-2.48828,0.49609,0.71661377,-0.35491943,0.55407715,-0.23138428,-80.05820,39.03875,-68.95264,11,58,0.966
869,30707,-2.83594,-2.98438,1.14844,0.72552490,-0.35412598,0.53833008,-0.24169922,-77.64185,37.58619,-67.47507,11,58,0.966
870,30717,-1.91406,-2.76172,1.64844,0.73455811,-0.35345459,0.52099609,-0.25305176,-75.17393,35.91130,-66.02985,11,58,0.966
871,30728,-1.49219,-3.17969,2.33594,0.74371338,-0.35327148,0.50128174,-0.26617432,-72.62795,33.88533,-64.62441,11,58,0.966
872,30738,-1.49219,-3.17969,2.33594,0.75183105,-0.35321045,0.48120117,-0.28002930,-70.25597,31.71919,-63.46287,11,58,0.966
873,30751,0.00000,-5.86328,4.55859,0.75952148,-0.35253906,0.45983887,-0.29553223,-67.85983,29.35158,-62.50642,11,58,0.966
874,30758,0.91797,-6.93359,5.82422,0.76696777,-0.34979248,0.43774414,-0.31268311,-65.33883,26.91895,-61.81012,11,58,0.966
875,30768,0.88281,-7.66016,6.70312,0.77325439,-0.34466553,0.41870117,-0.32855225,-63.00076,24.90120,-61.45177,11,58,0.966
876,30777,0.80469,-8.39453,7.23828,0.77905273,-0.33703613,0.40179443,-0.34350586,-60.68430,23.23538,-61.31213,11,58,0.966
877,30787,-0.30469,-9.04297,8.42578,0.78558350,-0.32611084,0.38348389,-0.35974121,-57.97010,21.58615,-61.26563,11,58,0.966
878,30803,-1.37891,-8.81250,8.92188,0.79101562,-0.31622314,0.36816406,-0.37237549,-55.67361,20.30212,-61.22026,11,58,0.966
879,30808,-1.37891,-8.81250,8.92188,0.79705811,-0.30523682,0.35015869,-0.38592529,-53.09042,18.81962,-61.13687,11,58,0.966
880,30820,-2.45312,-9.84766,9.76953,0.80151367,-0.29748535,0.33447266,-0.39648438,-51.07885,17.47407,-61.04012,11,58,0.966
881,30827,-2.37500,-10.03516,9.73047,0.80560303,-0.29064941,0.31530762,-0.40875244,-48.95405,15.68963,-60.98343,11,58,0.966
882,30842,-1.76172,-9.84375,9.96094,0.80810547,-0.28619385,0.29833984,-0.41949463,-47.28723,14.00963,-61.02662,11,58,0.966
883,30847,-1.76172,-9.84375,9.96094,0.80969238,-0.28216553,0.27984619,-0.43188477,-45.59919,12.08957,-61.24781,11,58,0.966
884,30859,0.76562,-9.76953,11.14844,0.81018066,-0.27825928,0.26141357,-0.44476318,-43.96988,10.14095,-61.63382,11,58,0.966
885,30867,1.53125,-9.92188,11.67969,0.80999756,-0.27386475,0.24444580,-0.45733643,-42.40907,8.36642,-62.15020,11,58,0.966
886,30877,1.95312,-9.88281,12.21875,0.80957031,-0.26776123,0.22808838,-0.46997070,-40.72766,6.75521,-62.78182,11,58,0.966
887,30887,1.76172,-9.76953,12.29688,0.80950928,-0.26037598,0.21423340,-0.48065186,-39.08166,5.54026,-63.36774,11,58,0.966
888,30903,0.88281,-8.61719,12.29688,0.80981445,-0.25219727,0.20178223,-0.48980713,-37.44889,4.57442,-63.88561,11,58,0.966
889,30911,0.46094,-8.19922,11.87891,0.81036377,-0.24316406,0.18896484,-0.49847412,-35.70979,3.66016,-64.37271,11,58,0.966
890,30918,-0.07812,-8.04297,11.37500,0.81103516,-0.23400879,0.17626953,-0.50628662,-33.97086,2.80711,-64.80632,11,58,0.966
891,30927,-0.38281,-7.96875,11.11328,0.81225586,-0.22369385,0.16204834,-0.51373291,-32.01892,1.91474,-65.17423,11,58,0.966
892,30938,-1.87891,-7.89062,11.10938,0.81365967,-0.21405029,0.14733887,-0.52001953,-30.10895,0.98249,-65.43052,11,58,0.966
893,30946,-2.22266,-8.16016,11.25781,0.81463623,-0.20678711,0.13146973,-0.52563477,-28.36844,-0.18272,-65.61716,11,58,0.966
894,30957,-1.72266,-9.00391,11.64453,0.81427002,-0.20434570,0.11413574,-0.53118896,-27.01799,-1.78897,-65.80701,11,58,0.966
895,30967,-0.57422,-9.92188,11.76172,0.81250000,-0.20574951,0.09698486,-0.53674316,-26.06179,-3.62750,-66.05826,11,58,0.966
896,30983,2.07031,-9.34766,12.68359,0.80920410,-0.21032715,0.08020020,-0.54266357,-25.43848,-5.65168,-66.41608,11,58,0.966
897,30988,2.07031,-9.34766,12.68359,0.80413818,-0.21771240,0.06311035,-0.54949951,-25.05902,-7.91889,-66.93017,11,58,0.966
898,30998,3.25781,-8.69531,12.72266,0.79803467,-0.22613525,0.04699707,-0.55657959,-24.82551,-10.17856,-67.54086,11,58,0.966
899,31007,3.71484,-8.31250,12.72266,0.79132080,-0.23480225,0.03094482,-0.56372070,-24.59963,-12.45885,-68.20392,11,58,0.966
900,31018,4.17578,-7.39453,12.67969,0.78515625,-0.24206543,0.01593018,-0.56982422,-24.29408,-14.52777,-68.79723,11,58,0.966
901,31027,4.59766,-7.04688,12.64062,0.77941895,-0.24810791,0.00018311,-0.57525635,-23.81264,-16.56925,-69.34190,11,58,0.966
902,31036,4.94141,-6.85547,12.37891,0.77496338,-0.25213623,-0.01531982,-0.57934570,-23.15169,-18.41439,-69.75872,11,58,0.966
903,31047,5.32422,-6.58984,12.48438,0.77191162,-0.25408936,-0.03100586,-0.58190918,-22.28895,-20.09546,-70.02373,11,58,0.966
904,31062,6.35938,-6.51172,12.98438,0.77014160,-0.25427246,-0.04553223,-0.58319092,-21.34066,-21.51390,-70.16965,11,58,0.966
905,31067,6.35938,-6.51172,12.98438,0.76934814,-0.25329590,-0.06036377,-0.58331299,-20.27618,-22.85506,-70.19812,11,58,0.966
906,31076,6.74219,-7.54688,13.44922,0.76959229,-0.25189209,-0.07305908,-0.58221436,-19.33595,-23.93803,-70.08009,11,58,0.966
907,31087,6.55078,-8.69531,13.78906,0.77050781,-0.25085449,-0.08422852,-0.57989502,-18.56900,-24.88152,-69.80032,11,58,0.966
908,31097,4.55859,-9.26953,14.47656,0.77130127,-0.25250244,-0.09240723,-0.57684326,-18.30118,-25.71391,-69.37335,11,58,0.966
909,31107,3.98438,-9.26953,13.94922,0.77087402,-0.25787354,-0.09875488,-0.57403564,-18.53797,-26.63503,-68.92218,11,58,0.966
910,31117,3.60156,-8.50391,13.48438,0.76904297,-0.26525879,-0.10461426,-0.57202148,-18.99951,-27.67140,-68.56448,12,60,1.005
911,31127,3.52344,-7.08594,13.52344,0.76550293,-0.27526855,-0.11120605,-0.57086182,-19.67103,-28.98164,-68.29531,12,60,1.005
912,31136,4.48047,-5.17188,13.21484,0.76025391,-0.28771973,-0.11791992,-0.57037354,-20.58588,-30.49836,-68.08888,12,60,1.005
913,31146,4.51953,-4.44531,12.90625,0.75329590,-0.30206299,-0.12316895,-0.57110596,-21.77122,-32.04396,-68.01292,12,60,1.005
914,31162,4.67188,-3.90625,12.40625,0.74615479,-0.31628418,-0.12719727,-0.57189941,-23.04290,-33.47453,-67.92190,12,60,1.005
915,31167,4.67188,-3.90625,12.40625,0.73779297,-0.33258057,-0.13067627,-0.57263184,-24.61313,-35.01254,-67.76038,12,60,1.005
916,31177,4.55859,-4.44531,10.99609,0.73028564,-0.34771729,-0.13281250,-0.57281494,-26.20045,-36.32388,-67.48820,12,60,1.005
917,31186,3.90625,-4.36719,10.80078,0.72363281,-0.36236572,-0.13403320,-0.57189941,-27.88336,-37.47844,-67.01206,12,60,1.005
918,31196,3.83203,-4.06250,10.80078,0.71740723,-0.37719727,-0.13415527,-0.57019043,-29.74016,-38.50592,-66.35806,12,60,1.005
919,31208,3.98438,-5.70703,10.80078,0.71099854,-0.39270020,-0.13269043,-0.56799316,-31.84736,-39.40632,-65.57289,12,60,1.005
920,31217,3.02734,-6.05078,11.14844,0.70434570,-0.40917969,-0.12927246,-0.56549072,-34.25399,-40.15559,-64.66644,12,60,1.005
921,31226,1.80078,-4.71094,9.46094,0.69720459,-0.42608643,-0.12445068,-0.56286621,-36.84776,-40.78535,-63.71034,12,60,1.005
922,31237,1.80078,-4.71094,9.46094,0.68927002,-0.44329834,-0.11926270,-0.56048584,-39.53156,-41.40292,-62.76662,12,60,1.005
923,31248,1.41797,-4.51953,8.73828,0.67950439,-0.46203613,-0.11407471,-0.55834961,-42.46012,-42.14455,-61.79371,12,60,1.005
924,31258,-0.38281,-0.76562,5.39844,0.66821289,-0.48132324,-0.10931396,-0.55664062,-45.48858,-42.99642,-60.83850,12,60,1.005
925,31266,0.26953,-0.88281,4.06641,0.65478516,-0.50195312,-0.10528564,-0.55517578,-48.75182,-44.04470,-59.81626,12,60,1.005
926,31276,1.76172,-1.91406,3.87109,0.63989258,-0.52307129,-0.10266113,-0.55352783,-52.16041,-45.27189,-58.64985,12,60,1.005
927,31288,4.90234,-3.21875,4.63672,0.62622070,-0.54150391,-0.10174561,-0.55157471,-55.23722,-46.45346,-57.43729,12,60,1.005
928,31301,5.82031,-4.36719,5.01953,0.61437988,-0.55718994,-0.10083008,-0.54949951,-57.98494,-47.41023,-56.26905,12,60,1.005
929,31312,5.32031,-4.90234,4.71094,0.60357666,-0.57159424,-0.09820557,-0.54705811,-60.67762,-48.07183,-55.11848,12,60,1.005
930,31317,5.32031,-4.90234,4.71094,0.59362793,-0.58532715,-0.09326172,-0.54437256,-63.37838,-48.41455,-54.02002,12,60,1.005
931,31327,3.10156,-4.17188,3.48438,0.58557129,-0.59637451,-0.08801270,-0.54187012,-65.63551,-48.54242,-53.13258,12,60,1.005
932,31338,1.91406,-3.22266,2.03125,0.57861328,-0.60583496,-0.08343506,-0.53961182,-67.59014,-48.62555,-52.35553,12,60,1.005
933,31346,1.68359,-1.95703,1.68359,0.57061768,-0.61621094,-0.07897949,-0.53704834,-69.75584,-48.76566,-51.46157,12,60,1.005
934,31356,2.10156,-1.18750,1.80078,0.56158447,-0.62689209,-0.07537842,-0.53479004,-71.99001,-49.03706,-50.53711,12,60,1.005
935,31368,3.26172,-3.10156,2.45312,0.55242920,-0.63653564,-0.07226562,-0.53332520,-74.02926,-49.35798,-49.76714,12,60,1.005
936,31381,2.98828,-3.52734,2.07031,0.54254150,-0.64611816,-0.06860352,-0.53240967,-76.08180,-49.68066,-49.09871,12,60,1.005
937,31386,2.98828,-3.52734,2.07031,0.53265381,-0.65521240,-0.06420898,-0.53186035,-78.05903,-49.93804,-48.55427,12,60,1.005
938,31397,2.83984,-2.52734,0.76562,0.52313232,-0.66339111,-0.05975342,-0.53167725,-79.86716,-50.16863,-48.13192,12,60,1.005
939,31407,2.83984,-2.29688,0.03906,0.51446533,-0.67047119,-0.05615234,-0.53167725,-81.45618,-50.41631,-47.75972,12,60,1.005
940,31415,2.91016,-2.10547,-0.23047,0.50726318,-0.67602539,-0.05383301,-0.53179932,-82.72744,-50.67897,-47.43801,12,60,1.005
941,31426,2.83984,-1.72266,-0.26953,0.50103760,-0.68041992,-0.05261230,-0.53216553,-83.75367,-50.98039,-47.16475,12,60,1.005
942,31436,2.76172,-1.07422,-0.57422,0.49609375,-0.68353271,-0.05279541,-0.53277588,-84.49369,-51.32939,-46.92942,12,60,1.005
943,31447,3.64453,-1.76172,-0.80469,0.49310303,-0.68469238,-0.05511475,-0.53387451,-84.77837,-51.75983,-46.77688,12,60,1.005
944,31455,4.85938,-3.56250,0.26953,0.49194336,-0.68420410,-0.05828857,-0.53521729,-84.67469,-52.16180,-46.75326,12,60,1.005
945,31466,5.94141,-4.67188,1.76172,0.49230957,-0.68237305,-0.06079102,-0.53698730,-84.22053,-52.43533,-46.98149,13,70,1.171
946,31476,6.39844,-5.36328,2.48828,0.49322510,-0.67993164,-0.06091309,-0.53912354,-83.59610,-52.49193,-47.51426,13,70,1.171
947,31487,6.58984,-5.51562,3.02734,0.49493408,-0.67681885,-0.05871582,-0.54174805,-82.77020,-52.32270,-48.36092,13,70,1.171
948,31495,6.16406,-4.94141,2.60547,0.49774170,-0.67236328,-0.05468750,-0.54516602,-81.61314,-51.95502,-49.57645,13,70,1.171
949,31506,5.59375,-4.21484,2.18359,0.50103760,-0.66729736,-0.05004883,-0.54882812,-80.34074,-51.49771,-50.90401,13,70,1.171
950,31516,5.40234,-3.71484,1.99219,0.50531006,-0.66149902,-0.04370117,-0.55236816,-78.96489,-50.80450,-52.36227,13,70,1.171
951,31527,5.09766,-3.83203,1.37891,0.50994873,-0.65545654,-0.03778076,-0.55578613,-77.58693,-50.09619,-53.74767,13,70,1.171
952,31535,5.09375,-3.79297,1.26562,0.51562500,-0.64849854,-0.03295898,-0.55902100,-76.06976,-49.37873,-55.06502,13,70,1.171
953,31546,5.78516,-3.29297,1.60938,0.52264404,-0.64068604,-0.03057861,-0.56164551,-74.41714,-48.73162,-56.16619,13,70,1.171
954,31557,5.78516,-3.29297,1.60938,0.53076172,-0.63195801,-0.03082275,-0.56384277,-72.60243,-48.19416,-57.08521,13,70,1.171
955,31568,4.83203,-3.17969,1.80078,0.54052734,-0.62139893,-0.03289795,-0.56622314,-70.43043,-47.66904,-58.02383,13,70,1.171
956,31577,8.84766,-10.11328,5.85938,0.55181885,-0.60919189,-0.03448486,-0.56848145,-68.03311,-46.94533,-59.03412,13,70,1.171
957,31585,9.50000,-11.95312,6.24219,0.56414795,-0.59655762,-0.03332520,-0.56988525,-65.75419,-45.85030,-60.00111,13,70,1.171
958,31595,9.15625,-12.10156,6.39844,0.57751465,-0.58392334,-0.02832031,-0.56982422,-63.76655,-44.28150,-60.82536,13,70,1.171
959,31606,6.74219,-8.27344,5.63281,0.59161377,-0.57122803,-0.01965332,-0.56860352,-62.05921,-42.28786,-61.53339,13,70,1.171
960,31615,6.20703,-6.55078,5.55469,0.60534668,-0.55871582,-0.00933838,-0.56677246,-60.58440,-40.14191,-62.13331,13,70,1.171
961,31625,4.67188,-5.66797,4.94141,0.61816406,-0.54644775,0.00018311,-0.56500244,-59.20661,-38.11829,-62.64412,13,70,1.171
962,31636,4.67188,-5.66797,4.94141,0.62921143,-0.53485107,0.00732422,-0.56390381,-57.87718,-36.44024,-63.10374,13,70,1.171
963,31649,5.51562,-2.94922,5.17188,0.63879395,-0.52325439,0.01196289,-0.56390381,-56.45889,-35.08956,-63.60754,13,70,1.171
964,31656,5.21094,-3.67578,5.13281,0.64794922,-0.51031494,0.01293945,-0.56524658,-54.69109,-34.06812,-64.19385,13,70,1.171
965,31665,4.90234,-4.40625,5.78516,0.65643311,-0.49694824,0.01055908,-0.56744385,-52.71729,-33.37638,-64.78388,13,70,1.171
966,31675,5.25000,-5.85938,6.82422,0.66534424,-0.48138428,0.00524902,-0.57061768,-50.31352,-32.84465,-65.47275,13,70,1.171
967,31686,6.28125,-9.46484,8.61719,0.67492676,-0.46386719,-0.00085449,-0.57385254,-47.66009,-32.24446,-66.19415,13,70,1.171
968,31695,6.82031,-10.87891,9.84375,0.68487549,-0.44628906,-0.00537109,-0.57598877,-45.16631,-31.43034,-66.77889,13,70,1.171
969,31705,7.23828,-12.75781,10.53516,0.69573975,-0.42864990,-0.00659180,-0.57629395,-42.95888,-30.21544,-67.14354,13,70,1.171
970,31715,7.23828,-12.75781,10.53516,0.70672607,-0.41296387,-0.00384521,-0.57440186,-41.32343,-28.67703,-67.19418,13,70,1.171
971,31728,5.44141,-12.33594,9.84375,0.71862793,-0.39807129,0.00225830,-0.57019043,-40.07551,-26.78880,-66.93263,13,70,1.171
972,31735,5.25000,-10.26953,10.22656,0.73132324,-0.38330078,0.01116943,-0.56402588,-39.07809,-24.58514,-66.43802,13,70,1.171
973,31745,4.48047,-8.27344,9.84766,0.74176025,-0.37145996,0.02032471,-0.55804443,-38.42581,-22.60795,-65.94048,13,70,1.171
974,31757,3.17969,-6.32031,9.08203,0.75103760,-0.36059570,0.03021240,-0.55224609,-37.92044,-20.66495,-65.48682,13,70,1.171
975,31765,2.87109,-6.39844,8.84766,0.75933838,-0.35046387,0.04064941,-0.54675293,-37.51853,-18.75351,-65.09060,13,70,1.171
976,31775,2.79688,-6.62891,8.69531,0.76580811,-0.34173584,0.04931641,-0.54248047,-37.14653,-17.17237,-64.81689,13,70,1.171
977,31785,2.98828,-6.82031,8.65625,0.77227783,-0.33190918,0.05688477,-0.53869629,-36.58591,-15.64839,-64.59290,13,70,1.171
978,31795,2.98828,-6.82031,8.65625,0.77899170,-0.32012939,0.06164551,-0.53564453,-35.64953,-14.29426,-64.40812,13,70,1.171
979,31808,4.86328,-11.76172,10.91797,0.78814697,-0.30261230,0.06463623,-0.53204346,-34.02184,-12.71611,-64.13823,13,70,1.171
980,31815,2.87109,-4.67188,12.10156,0.79901123,-0.28033447,0.06842041,-0.52752686,-31.96935,-10.74485,-63.78132,13,70,1.171
981,31825,4.94141,-8.58203,14.43750,0.80676270,-0.26220703,0.07360840,-0.52441406,-30.42940,-8.98836,-63.60035,13,70,1.171
982,31837,0.00000,-4.90234,11.33594,0.81262207,-0.24542236,0.08050537,-0.52239990,-29.13389,-7.21426,-63.59341,13,70,1.171
