# PadDis v8.9,,,,,,,,,,,,,,,,
seq,timestamp_ms,accel_x,accel_y,accel_z,q_w,q_x,q_y,q_z,roll,pitch,yaw,stroke_count,cpm,hz,gps_utc_sec,gps_uk_offset
61074,631504,1.26172,-2.46875,3.69531,0.09448242,-0.12994385,-0.27246094,0.94866943,-33.51114,11.24811,165.22839,23,27,0.457,51450,1
61075,631513,1.07031,-3.23828,2.66406,0.08416748,-0.13879395,-0.29528809,0.94152832,-36.35787,12.21881,165.75731,23,27,0.457,51450,1
61076,631523,1.33594,-5.33984,2.85938,0.07324219,-0.14758301,-0.31695557,0.934021,-39.08685,13.25362,166.30946,23,27,0.457,51450,1
61077,631533,0.87891,-3.66016,2.66406,0.06347656,-0.15496826,-0.33337402,0.92779541,-41.17744,14.1959,166.81599,23,27,0.457,51451,1
61078,631544,0.87891,-3.66016,2.66406,0.05285645,-0.16247559,-0.34783936,0.921875,-43.03657,15.23528,167.39998,23,27,0.457,51451,1
61079,631554,0.87891,-5.15234,3.69922,0.0425415,-0.16949463,-0.35906982,0.91680908,-44.49898,16.27425,167.99126,23,27,0.457,51451,1
61080,631564,0.6875,-3.46484,3.8125,0.03131104,-0.17669678,-0.36889648,0.9119873,-45.78671,17.40878,168.66913,23,27,0.457,51451,1
61081,631573,0.22656,-3.15625,3.65625,0.02124023,-0.18280029,-0.37609863,0.90814209,-46.73223,18.42288,169.30479,23,27,0.457,51451,1
61082,631583,-0.30859,-2.58203,3.93359,0.01037598,-0.18890381,-0.38256836,0.90435791,-47.57737,19.4953,170.02411,23,27,0.457,51451,1
61083,631593,-1,-1.96875,3.96875,0.00079346,0.19445801,0.38873291,-0.90057373,-48.36592,20.54104,170.7972,23,27,0.457,51451,1
61084,631603,-2.03516,-1.81641,2.89062,0.01300049,0.19989014,0.39556885,-0.8963623,-49.22,21.62986,171.66049,23,27,0.457,51451,1
61085,631613,-2.45312,-2.08594,2.66797,0.0246582,0.20422363,0.40222168,-0.89215088,-50.03358,22.59538,172.51392,23,27,0.457,51451,1
61086,631624,-2.45312,-2.08594,2.66797,0.0369873,0.20806885,0.40917969,-0.88763428,-50.86516,23.55653,173.44685,23,27,0.457,51451,1
61087,631635,-2.875,-2.04688,2.96875,0.05041504,0.21160889,0.41607666,-0.88293457,-51.66009,24.55844,174.50706,23,27,0.457,51451,1
61088,631643,-3.22266,-2.23828,3.125,0.06402588,0.21472168,0.42144775,-0.87872314,-52.23343,25.55255,175.64761,23,27,0.457,51451,1
61089,631653,-3.83203,-3.34766,3.89062,0.07739258,0.21746826,0.42462158,-0.87548828,-52.49021,26.51792,176.8501,23,27,0.457,51451,1
61090,631663,-4.10156,-2.3125,4.04688,0.09143066,0.22009277,0.42578125,-0.87286377,-52.44619,27.52203,178.20297,23,27,0.457,51451,1
61091,631675,-4.48828,-1.39453,3.01172,0.10498047,0.222229,0.42590332,-0.87078857,-52.23338,28.45167,179.57877,24,26,0.434,51451,1
61092,631683,-4.75,-0.85938,2.85938,0.1184082,0.22387695,0.42602539,-0.86853027,-52.00039,29.32649,-179.01892,24,26,0.434,51451,1
61093,631693,-5.09375,-1.43359,3.05078,0.13305664,0.22503662,0.42687988,-0.86572266,-51.81003,30.2128,-177.46303,24,26,0.434,51451,1
61094,631704,-5.09375,-1.43359,3.05078,0.14685059,0.2255249,0.4284668,-0.86254883,-51.7169,30.99032,-175.98174,24,26,0.434,51451,1
61095,631715,-5.32812,-2.00781,3.46875,0.16149902,0.2255249,0.43029785,-0.85900879,-51.61235,31.76546,-174.37247,24,26,0.434,51451,1
61096,631725,-5.89844,-3.04297,4.39062,0.17590332,0.22509766,0.43182373,-0.85552979,-51.4471,32.48416,-172.74174,24,26,0.434,51451,1
61097,631733,-5.97656,-3.11719,5.23438,0.18994141,0.22436523,0.43249512,-0.85235596,-51.15001,33.14683,-171.08687,24,26,0.434,51451,1
61098,631743,-6.20703,-2.85156,6.19141,0.20373535,0.22344971,0.43206787,-0.84967041,-50.67879,33.76161,-169.38693,24,26,0.434,51451,1
61099,631754,-6.28516,-3.00391,6.23047,0.2166748,0.22253418,0.43048096,-0.84747314,-50.05316,34.31454,-167.72086,24,26,0.434,51451,1
61100,631762,-6.17188,-3.23438,6.64844,0.22900391,0.22167969,0.42736816,-0.8460083,-49.20785,34.80935,-166.04477,24,26,0.434,51451,1
61101,631773,-6.09375,-2.42969,7.07031,0.24102783,0.2210083,0.42272949,-0.84521484,-48.13343,35.26523,-164.32631,24,26,0.434,51451,1
61102,631784,-6.09375,-2.42969,7.07031,0.25189209,0.22058105,0.41741943,-0.8447876,-46.99073,35.6598,-162.71304,24,26,0.434,51451,1
61103,631797,-5.32812,0.67578,6.83984,0.26318359,0.22003174,0.41143799,-0.84442139,-45.72232,36.02666,-160.99149,24,26,0.434,51451,1
61104,631804,-5.44141,0.44531,6.6875,0.27429199,0.21917725,0.40606689,-0.84368896,-44.53891,36.3425,-159.29089,24,26,0.434,51451,1
61105,631812,-5.59766,0.59766,6.95703,0.28619385,0.21783447,0.40118408,-0.84246826,-43.38564,36.62922,-157.4762,24,26,0.434,51451,1
61106,631822,-6.01562,-0.09375,6.53125,0.29772949,0.21618652,0.39691162,-0.84088135,-42.33199,36.86411,-155.711,24,26,0.434,51451,1
61107,631834,-6.90234,-0.35938,6.57422,0.30883789,0.2142334,0.39300537,-0.83917236,-41.34448,37.03792,-153.99654,24,26,0.434,51451,1
61108,631842,-7.28125,-0.62891,6.76562,0.32061768,0.21191406,0.38916016,-0.8371582,-40.33744,37.18316,-152.17471,24,26,0.434,51451,1
61109,631852,-7.625,-0.66797,6.80469,0.33209229,0.20935059,0.38555908,-0.83502197,-39.37966,37.27841,-150.38904,24,26,0.434,51451,1
61110,631863,-7.625,-0.66797,6.80469,0.34283447,0.20666504,0.38226318,-0.83282471,-38.50087,37.32654,-148.70535,24,26,0.434,51451,1
61111,631876,-7.24219,-1.05078,7.67969,0.3538208,0.20367432,0.37884521,-0.83056641,-37.60005,37.32926,-146.97182,24,26,0.434,51451,1
61112,631883,-7.16797,-1.43359,7.80078,0.36480713,0.20050049,0.37530518,-0.828125,-36.69389,37.2972,-145.22266,24,26,0.434,51451,1
61113,631892,-7.01172,-1.05078,8.06641,0.37597656,0.19714355,0.37145996,-0.82568359,-35.74596,37.22173,-143.43062,24,26,0.434,51451,1
61114,631902,-6.9375,-1.28125,7.71875,0.3862915,0.19390869,0.36761475,-0.82342529,-34.84131,37.11068,-141.75993,24,26,0.434,51451,1
61115,631914,-6.4375,-1.89453,7.41406,0.39611816,0.19067383,0.3637085,-0.82128906,-33.95879,36.96308,-140.15709,24,26,0.434,51451,1
61116,631922,-6.32422,-1.47266,7.60938,0.40673828,0.18713379,0.35894775,-0.81896973,-32.94715,36.76279,-138.4019,24,26,0.434,51451,1
61117,631932,-6.28516,-1.77734,7.53125,0.41638184,0.18383789,0.35430908,-0.81689453,-32.00074,36.5408,-136.79907,24,26,0.434,51451,1
61118,631943,-6.28516,-1.77734,7.53125,0.42565918,0.18054199,0.34942627,-0.81494141,-31.05228,36.27985,-135.24348,24,26,0.434,51451,1
61119,631956,-6.13672,-2.66016,5.88281,0.43536377,0.17706299,0.34387207,-0.81292725,-30.01896,35.96582,-133.60536,24,26,0.434,51451,1
61120,631963,-6.36328,-2.8125,6.19141,0.44470215,0.17364502,0.3380127,-0.81103516,-28.97857,35.61441,-132.01672,24,26,0.434,51451,1
61121,631972,-6.74219,-2.88672,6.49609,0.45458984,0.17016602,0.33117676,-0.80914307,-27.81086,35.20314,-130.32596,24,26,0.434,51451,1
61122,631982,-7.16406,-2.96484,6.15234,0.46362305,0.16693115,0.32427979,-0.80749512,-26.68587,34.76899,-128.76918,24,26,0.434,51451,1
61123,631993,-8.47266,-2.54297,6.38281,0.47235107,0.16412354,0.3168335,-0.80596924,-25.50872,34.32302,-127.25101,24,26,0.434,51451,1
61124,632002,-9.15625,-2.69531,7.26172,0.48101807,0.16143799,0.30859375,-0.80456543,-24.25437,33.82481,-125.72919,24,26,0.434,51451,1
61125,632012,-9.77734,-2.58203,7.80078,0.48980713,0.15899658,0.29931641,-0.80322266,-22.88306,33.27531,-124.17218,24,26,0.434,51451,1
61126,632023,-9.77734,-2.58203,7.80078,0.4977417,0.15698242,0.29016113,-0.80212402,-21.56691,32.73106,-122.76093,24,26,0.434,51451,1
61127,632036,-10.50391,-1.89453,8.06641,0.50585938,0.1550293,0.28015137,-0.80102539,-20.16581,32.12514,-121.31583,24,26,0.434,51451,1
61128,632043,-10.61328,-1.54688,8.10547,0.51367188,0.15319824,0.2699585,-0.79986572,-18.77759,31.49477,-119.92197,24,26,0.434,51451,1
61129,632052,-10.61328,-1.50781,8.14453,0.52166748,0.15142822,0.2588501,-0.79870605,-17.3036,30.79444,-118.49867,24,26,0.434,51451,1
61130,632062,-10.76562,-1.625,8.06641,0.52905273,0.14978027,0.24822998,-0.79748535,-15.93083,30.10477,-117.18935,24,26,0.434,51451,1
61131,632073,-11.76172,-1.01172,8.06641,0.53649902,0.14807129,0.23724365,-0.79626465,-14.54787,29.36237,-115.88885,24,26,0.434,51451,1
61132,632081,-12.03125,-1.05078,7.95312,0.54284668,0.14648438,0.22747803,-0.79504395,-13.35699,28.67909,-114.77939,24,26,0.434,51451,1
61133,632092,-11.91406,-1.24219,7.83594,0.54986572,0.14465332,0.21655273,-0.79364014,-12.05813,27.88757,-113.57273,24,26,0.434,51451,1
61134,632102,-11.91406,-1.24219,7.83594,0.55474854,0.14312744,0.20623779,-0.79321289,-10.90584,27.12306,-112.70265,24,26,0.434,51451,1
61135,632115,-11.15234,-2.12109,8.87109,0.55950928,0.14160156,0.19549561,-0.79290771,-9.73456,26.31507,-111.86397,24,26,0.434,51451,1
61136,632122,-10.69141,-2.12109,9.02344,0.56427002,0.14001465,0.1842041,-0.7925415,-8.53193,25.45434,-111.03053,24,26,0.434,51451,1
61137,632132,-10.03906,-2.19922,9.17969,0.56903076,0.1385498,0.17236328,-0.79205322,-7.28651,24.55818,-110.19915,24,26,0.434,51451,1
61138,632142,-9.38672,-2.58203,9.40625,0.5725708,0.13751221,0.16052246,-0.79211426,-6.06999,23.68375,-109.55214,24,26,0.434,51451,1
61139,632152,-8.62109,-2.69531,9.59375,0.57550049,0.13696289,0.14855957,-0.79241943,-4.84254,22.83462,-108.99989,24,26,0.434,51451,1
61140,632162,-8.31641,-2.8125,9.48828,0.57824707,0.13677979,0.13476562,-0.79296875,-3.43159,21.88625,-108.46328,24,26,0.434,51451,1
61141,632172,-8.04688,-2.39062,9.48438,0.58056641,0.13684082,0.12115479,-0.79345703,-2.048,20.9663,-107.9937,24,26,0.434,51451,1
61142,632183,-8.04688,-2.39062,9.48438,0.58184814,0.137146,0.10778809,-0.79437256,-0.7108,20.07939,-107.68308,24,26,0.434,51451,1
61143,632196,-6.28516,-1.39453,8.64062,0.58282471,0.13739014,0.09399414,-0.79534912,0.64493,19.15461,-107.42393,24,26,0.434,51451,1
61144,632203,-6.01562,-0.01562,9.10156,0.58355713,0.13696289,0.08068848,-0.79638672,1.89004,18.19855,-107.23263,24,26,0.434,51451,1
61145,632212,-5.75,1.36328,9.48828,0.58465576,0.13464355,0.06921387,-0.79705811,2.82617,17.19095,-107.05136,24,26,0.434,51451,1
61146,632223,-5.75,4.16016,10.17578,0.58624268,0.12915039,0.06231689,-0.79736328,3.10691,16.2015,-106.90904,24,26,0.434,51451,1
61147,632232,-6.01562,4.35156,11.48047,0.58782959,0.12133789,0.06030273,-0.79754639,2.76155,15.33398,-106.84422,24,26,0.434,51451,1
61148,632242,-6.28516,3.69922,13.3125,0.58953857,0.10992432,0.06091309,-0.7979126,1.91635,14.31412,-106.84158,24,26,0.434,51451,1
61149,632252,-6.32422,3.01172,14.69922,0.59088135,0.09667969,0.06317139,-0.79846191,0.78712,13.24051,-106.90395,24,26,0.434,51451,1
61150,632263,-6.17188,-0.62891,12.32031,0.59173584,0.07983398,0.06646729,-0.79943848,-0.69046,11.90547,-107.05509,24,26,0.434,51451,1
61151,632272,-5.55859,-2.50391,10.9375,0.5914917,0.06231689,0.06970215,-0.80090332,-2.21066,10.50183,-107.30917,24,26,0.434,51451,1
61152,632281,-4.48438,-3.76953,11.24219,0.59106445,0.04522705,0.07299805,-0.80200195,-3.69511,9.13999,-107.51604,24,26,0.434,51451,1
61153,632292,-3.41406,-2.88672,12.96875,0.59020996,0.02923584,0.07501221,-0.80322266,-4.97916,7.78824,-107.72207,24,26,0.434,51451,1
61154,632302,-3.41406,-2.88672,12.96875,0.58880615,0.01464844,0.07568359,-0.80462646,-6.03914,6.47054,-107.95016,24,26,0.434,51451,1
61155,632315,-1.11328,-1.50781,11.28516,0.58679199,0.00006104,0.07525635,-0.80621338,-6.99337,5.07277,-108.21314,24,26,0.434,51451,1
61156,632322,-0.65625,-1.92969,10.82422,0.58428955,-0.01477051,0.07366943,-0.80810547,-7.85001,3.56677,-108.50822,24,26,0.434,51451,1
61157,632332,-0.30859,-1.89453,11.47656,0.5814209,-0.02856445,0.07147217,-0.80993652,-8.57461,2.11132,-108.8122,24,26,0.434,51451,1
61158,632343,0.11328,-1.28125,11.20703,0.57824707,-0.04223633,0.06872559,-0.81188965,-9.23267,0.62441,-109.13168,24,26,0.434,51451,1
61159,632351,0.37891,-1.43359,9.86719,0.574646,-0.0557251,0.06573486,-0.81384277,-9.8496,-0.86833,-109.47414,24,26,0.434,51451,1
61160,632361,0.1875,-2.27734,9.48438,0.57073975,-0.06872559,0.06237793,-0.81585693,-10.39227,-2.34624,-109.83651,24,26,0.434,51451,1
61161,632372,-0.07812,-2.00781,10.82031,0.56646729,-0.08105469,0.0581665,-0.8180542,-10.80134,-3.82516,-110.23637,24,26,0.434,51451,1
61162,632387,-0.11719,-2.73438,10.85938,0.56213379,-0.09191895,0.05297852,-0.82019043,-11.01408,-5.234,-110.64389,24,26,0.434,51451,1
61163,632392,-0.11719,-2.73438,10.85938,0.55786133,-0.10308838,0.0458374,-0.82220459,-11.05492,-6.79877,-111.02794,24,26,0.434,51451,1
61164,632401,-0.00391,-1.125,10.39844,0.55297852,-0.11260986,0.03826904,-0.824646,-10.93083,-8.24503,-111.52094,24,26,0.434,51451,1
61165,632412,0.03516,-0.55078,10.17578,0.54803467,-0.1217041,0.03033447,-0.82696533,-10.7326,-9.67449,-112.02376,24,26,0.434,51451,1
61166,632423,0.53125,2.32031,9.32812,0.54315186,-0.1307373,0.02294922,-0.82910156,-10.57226,-11.06083,-112.51512,24,26,0.434,51451,1
61167,632431,0.95312,2.93359,8.10156,0.53729248,-0.14160156,0.015625,-0.83123779,-10.51935,-12.62876,-113.07739,24,26,0.434,51451,1
61168,632441,1.14453,2.47266,7.33594,0.53167725,-0.15216064,0.01068115,-0.83312988,-10.66687,-14.01456,-113.59568,24,26,0.434,51451,1
61169,632451,0.99219,2.47266,7.19141,0.52526855,-0.16412354,0.00720215,-0.83496094,-11.03185,-15.45566,-114.15095,24,26,0.434,51451,1
61170,632466,1.18359,2.85938,4.81641,0.51867676,-0.1762085,0.00537109,-0.83660889,-11.55674,-16.81355,-114.6906,24,26,0.434,51451,1
61171,632474,1.375,2.93359,4.46094,0.51135254,-0.18908691,0.00469971,-0.83831787,-12.23035,-18.19264,-115.27029,24,26,0.434,51451,1
61172,632481,1.41406,3.24219,4.65625,0.50292969,-0.20343018,0.00506592,-0.84002686,-13.08223,-19.67476,-115.90343,24,26,0.434,51451,1
61173,632491,1.75781,2.85938,4.07812,0.49493408,-0.21624756,0.00616455,-0.84155273,-13.90764,-20.96978,-116.49262,24,26,0.434,51451,1
61174,632502,2.71484,1.36328,3.55078,0.48681641,-0.22875977,0.00762939,-0.84301758,-14.74306,-22.22513,-117.07851,24,26,0.434,51451,1
61175,632511,3.21484,0.51953,3.8125,0.47796631,-0.24121094,0.00897217,-0.84454346,-15.54431,-23.50705,-117.73161,24,26,0.434,51452,1
61176,632521,3.63672,-1.16406,4.92578,0.46875,-0.25323486,0.00939941,-0.84625244,-16.20469,-24.81901,-118.4463,24,26,0.434,51452,1
61177,632531,3.59766,-2.88672,6.83984,0.45996094,-0.26312256,0.00769043,-0.84802246,-16.49591,-26.05244,-119.20838,24,26,0.434,51452,1
61178,632546,2.75391,-1.73828,5.46094,0.45214844,-0.27056885,0.00299072,-0.84991455,-16.30959,-27.20735,-120.0026,24,26,0.434,51452,1
61179,632554,2.25781,-0.66797,5.23828,0.44403076,-0.27716064,-0.00372314,-0.85205078,-15.81919,-28.39993,-120.92227,24,26,0.434,51452,1
61180,632562,1.94922,0.94141,6.34766,0.43469238,-0.28375244,-0.01239014,-0.85461426,-15.05071,-29.72077,-122.06541,24,26,0.434,51452,1
61181,632571,1.875,1.78516,6.53125,0.42584229,-0.28979492,-0.0189209,-0.85693359,-14.46042,-30.84895,-123.14162,24,26,0.434,51452,1
61182,632582,2.98438,1.40234,4.07812,0.41497803,-0.29718018,-0.02453613,-0.85955811,-13.96629,-32.09129,-124.42413,24,26,0.434,51452,1
61183,632591,3.71094,0.44531,4.50391,0.40490723,-0.30383301,-0.02832031,-0.86193848,-13.62365,-33.14109,-125.6039,24,26,0.434,51452,1
61184,632601,4.51562,0.21484,5.65234,0.39245605,-0.31170654,-0.03198242,-0.86474609,-13.25815,-34.34691,-127.06518,24,26,0.434,51452,1
61185,632611,5.01562,-0.12891,6.00391,0.38024902,-0.3190918,-0.03479004,-0.86737061,-12.93371,-35.4525,-128.50537,24,26,0.434,51452,1
61186,632626,5.97266,0.21484,5.34766,0.36834717,-0.32580566,-0.03741455,-0.86993408,-12.56338,-36.47084,-129.94843,24,26,0.434,51452,1
61187,632631,5.97266,0.21484,5.34766,0.35552979,-0.33282471,-0.0401001,-0.87249756,-12.13388,-37.53677,-131.52275,24,26,0.434,51452,1
61188,632640,6.66797,0.71094,5.46094,0.3425293,-0.33935547,-0.0425415,-0.87506104,-11.6553,-38.53834,-133.15883,24,26,0.434,51452,1
61189,632651,6.92969,1.40234,5.65234,0.32922363,-0.34564209,-0.04504395,-0.87756348,-11.10074,-39.51668,-134.8739,24,26,0.434,51452,1
61190,632661,7.07812,1.25,6.11328,0.3168335,-0.35107422,-0.04730225,-0.87982178,-10.53061,-40.3733,-136.50981,24,26,0.434,51452,1
61191,632671,6.93359,1.44141,6.11328,0.30310059,-0.35668945,-0.04962158,-0.88232422,-9.85437,-41.25988,-138.36447,24,26,0.434,51452,1
61192,632681,6.73828,1.40234,6.57422,0.28973389,-0.3616333,-0.05157471,-0.88464355,-9.16709,-42.04649,-140.20163,24,26,0.434,51452,1
61193,632691,6.43359,1.63281,7.10938,0.27636719,-0.36608887,-0.05334473,-0.88702393,-8.43548,-42.75821,-142.08206,24,26,0.434,51452,1
61194,632703,5.66797,1.86328,7.76172,0.26312256,-0.36993408,-0.05480957,-0.88934326,-7.68416,-43.37939,-143.97691,24,26,0.434,51452,1
61195,632711,5.51172,2.16797,7.91797,0.24914551,-0.37347412,-0.05615234,-0.89178467,-6.85709,-43.95591,-146.01141,24,26,0.434,51452,1
61196,632721,5.66797,2.85938,7.95312,0.23498535,-0.37640381,-0.05743408,-0.89434814,-5.96267,-44.44512,-148.11926,24,26,0.434,51452,1
61197,632731,5.85938,3.05078,7.76172,0.2210083,-0.37872314,-0.05877686,-0.89678955,-5.01589,-44.85192,-150.2402,24,26,0.434,51452,1
61198,632742,6.35547,3.05078,8.10547,0.2076416,-0.38037109,-0.06018066,-0.89923096,-4.04382,-45.15767,-152.31332,24,26,0.434,51452,1
61199,632751,6.43359,3.05078,8.0625,0.19317627,-0.38153076,-0.06201172,-0.90179443,-2.90355,-45.40689,-154.60344,24,26,0.434,51452,1
61200,632761,6.50781,3.08594,7.83984,0.17944336,-0.38201904,-0.06427002,-0.90429688,-1.70745,-45.55862,-156.83565,24,26,0.434,51452,1
61201,632771,6.69922,2.55078,7.07422,0.1661377,-0.38183594,-0.06713867,-0.90667725,-0.42015,-45.6213,-159.05615,24,26,0.434,51452,1
61202,632784,6.92969,2.51172,6.6875,0.15380859,-0.38104248,-0.07055664,-0.90893555,0.90464,-45.59371,-161.17119,24,26,0.434,51452,1
61203,632791,6.8125,2.35938,6.53516,0.14099121,-0.37963867,-0.07519531,-0.91125488,2.45175,-45.48506,-163.4375,24,26,0.434,51452,1
61204,632801,6.66406,2.78125,6.11328,0.12878418,-0.37774658,-0.08062744,-0.91339111,4.07534,-45.29872,-165.65001,24,26,0.434,51452,1
61205,632812,6.20312,2.47266,4.69531,0.11700439,-0.37536621,-0.08709717,-0.91534424,5.8157,-45.03498,-167.84401,24,26,0.434,51452,1
61206,632820,5.89062,2.55078,4.50391,0.10577393,-0.37268066,-0.09436035,-0.91705322,7.6194,-44.71003,-169.97836,24,26,0.434,51452,1
61207,632830,5.625,2.70312,4.42969,0.0947876,-0.36968994,-0.10247803,-0.9185791,9.50848,-44.31838,-172.09694,24,26,0.434,51452,1
61208,632841,5.48047,2.93359,4.19922,0.08404541,-0.36657715,-0.11120605,-0.91986084,11.44069,-43.87799,-174.18008,24,26,0.434,51452,1
61209,632852,5.28125,3.08594,3.69922,0.07354736,-0.36340332,-0.1204834,-0.92089844,13.40364,-43.39382,-176.22124,24,26,0.434,51452,1
61210,632865,5.32422,3.31641,3.77734,0.06359863,-0.36035156,-0.1295166,-0.92156982,15.2659,-42.89659,-178.13206,24,26,0.434,51452,1
61211,632872,5.47656,3.54688,3.69922,0.05316162,-0.35723877,-0.13922119,-0.92205811,17.21548,-42.34391,179.88882,24,26,0.434,51452,1
61212,632881,5.625,4.19922,3.66016,0.04217529,-0.35406494,-0.1494751,-0.92224121,19.23407,-41.73349,177.84541,24,26,0.434,51452,1
61213,632892,5.62891,4.96484,3.625,0.03204346,-0.35125732,-0.15863037,-0.92218018,21.01729,-41.14895,176.01416,24,26,0.434,51452,1
61214,632900,5.74219,5.88281,3.73828,0.02105713,-0.34844971,-0.16772461,-0.92193604,22.79815,-40.51051,174.10667,24,26,0.434,51452,1
61215,632910,5.82031,6.22656,4.04688,0.01025391,-0.34588623,-0.17553711,-0.92163086,24.35653,-39.88023,172.32138,24,26,0.434,51452,1
61216,632920,5.70312,5.26953,4.54297,0.00018311,0.34313965,0.18292236,0.92132568,25.79584,-39.21191,170.65094,24,26,0.434,51452,1
61217,632932,5.32031,6.26562,5.00391,0.01098633,0.34051514,0.18920898,0.92095947,27.07091,-38.53703,169.01228,24,26,0.434,51452,1
61218,632945,5.28516,6.30859,5.26953,0.02166748,0.33795166,0.1940918,0.9206543,28.119,-37.87123,167.4825,24,26,0.434,51452,1
61219,632952,5.4375,6.42188,6.19141,0.03338623,0.33520508,0.19824219,0.92041016,29.07388,-37.14659,165.88585,24,26,0.434,51452,1
61220,632960,5.78125,6.42188,6.87891,0.04504395,0.33251953,0.20153809,0.92022705,29.88181,-36.42791,164.3593,24,26,0.434,51452,1
61221,632972,7.04688,6.83984,8.18359,0.05749512,0.32958984,0.20422363,0.91998291,30.60468,-35.65788,162.78966,24,26,0.434,51452,1
61222,632980,7.69531,6.57422,8.52734,0.07037354,0.32653809,0.20611572,0.91973877,31.20615,-34.86601,161.22595,24,26,0.434,51452,1
61223,632990,8.23438,5.88281,8.94922,0.08209229,0.32354736,0.20739746,0.91955566,31.6625,-34.12345,159.84949,24,26,0.434,51452,1
61224,633000,8.57812,5.76953,9.44922,0.09362793,0.32012939,0.2086792,0.91931152,32.07574,-33.3368,158.53085,24,26,0.434,51452,1
61225,633012,8.65234,5.42578,9.67578,0.10443115,0.31652832,0.21002197,0.91912842,32.44102,-32.54714,157.32747,24,26,0.434,51452,1
61226,633025,8.46094,5.34766,9.41016,0.1151123,0.31256104,0.21154785,0.91888428,32.79157,-31.71451,156.16391,24,26,0.434,51452,1
61227,633034,8.19531,5.30859,9.18359,0.12573242,0.30834961,0.21337891,0.91845703,33.15271,-30.84809,155.02014,24,26,0.434,51452,1
61228,633041,8.15625,5.19531,9.33203,0.1361084,0.30371094,0.21582031,0.91796875,33.54296,-29.92322,153.92329,24,26,0.434,51452,1
61229,633051,8.04297,4.42969,9.52734,0.14587402,0.29882812,0.21887207,0.9173584,33.96266,-28.97287,152.90712,24,26,0.434,51452,1
61230,633059,7.85156,4.3125,9.52734,0.15509033,0.29364014,0.22296143,0.91650391,34.46604,-27.97596,151.95412,24,26,0.434,51452,1
61231,633070,7.69531,3.54688,9.25,0.16375732,0.28808594,0.22839355,0.91540527,35.08464,-26.91419,151.06386,24,26,0.434,51452,1
61232,633080,7.50391,3.50781,8.94531,0.17126465,0.28259277,0.23522949,0.9140625,35.8302,-25.85069,150.28925,24,26,0.434,51452,1
61233,633091,7.23828,3.35547,8.56641,0.1774292,0.27734375,0.24334717,0.91235352,36.70101,-24.81654,149.64172,24,26,0.434,51452,1
61234,633105,7.19922,3.85156,8.52344,0.18328857,0.27215576,0.25341797,0.90997314,37.79409,-23.73066,148.99606,24,26,0.434,51452,1
61235,633110,7.19922,3.85156,8.52344,0.18927002,0.26745605,0.26519775,0.90679932,39.10617,-22.62395,148.29305,24,26,0.434,51452,1
61236,633120,7.00781,4.8125,7.57031,0.19348145,0.26275635,0.27880859,0.90319824,40.59227,-21.51606,147.77887,24,26,0.434,51452,1
61237,633131,6.89062,5.34766,7.25781,0.19671631,0.25836182,0.29333496,0.89916992,42.17796,-20.43929,147.36482,24,26,0.434,51452,1
61238,633139,6.92969,5.80859,7.29688,0.19909668,0.25390625,0.30975342,0.89440918,43.9698,-19.31994,147.03876,24,26,0.434,51452,1
61239,633150,7.04688,6.61328,7.49609,0.20080566,0.24969482,0.32678223,0.88916016,45.8364,-18.22674,146.78804,24,26,0.434,51452,1
61240,633160,7.3125,6.6875,7.57422,0.2019043,0.24572754,0.34399414,0.88348389,47.73433,-17.17421,146.60947,24,26,0.434,51452,1
61241,633171,7.66016,7.45312,7.57031,0.20239258,0.2421875,0.36029053,0.87780762,49.54161,-16.22173,146.50784,24,26,0.434,51452,1
61242,633184,7.66016,8.33594,7.64453,0.20257568,0.23858643,0.37683105,0.87182617,51.37674,-15.26756,146.46046,24,26,0.434,51452,1
61243,633192,7.66016,9.29297,7.95312,0.20245361,0.23504639,0.39276123,0.86572266,53.15174,-14.35595,146.46562,24,26,0.434,51452,1
61244,633200,7.69531,10.4375,8.02734,0.20220947,0.23138428,0.4074707,0.85992432,54.77953,-13.48398,146.52478,24,26,0.434,51452,1
61245,633211,7.39062,13.125,7.76172,0.20214844,0.2276001,0.41900635,0.85540771,56.01778,-12.70838,146.62816,24,26,0.434,51452,1
61246,633219,7.12109,14.46484,7.68359,0.20373535,0.22277832,0.42669678,0.85253906,56.74452,-11.88696,146.68347,24,26,0.434,51452,1
61247,633230,6.96875,15.54297,8.10547,0.20617676,0.21813965,0.42779541,0.8526001,56.67174,-11.27762,146.71585,24,26,0.434,51452,1
61248,633240,6.96875,15.61328,8.98828,0.20935059,0.21228027,0.4251709,0.85461426,56.08538,-10.65012,146.7865,25,26,0.436,51452,1
61249,633250,7.04688,12.89062,9.82812,0.21264648,0.20568848,0.42034912,0.85778809,55.19938,-10.02624,146.90276,25,26,0.436,51452,1
61250,633259,7.04688,11.66797,10.01953,0.21612549,0.19781494,0.41381836,0.86193848,54.05387,-9.33062,147.07982,25,26,0.436,51452,1
61251,633270,7.23828,9.17969,9.94531,0.21960449,0.18823242,0.40588379,0.86694336,52.67489,-8.51726,147.34863,25,26,0.436,51452,1
61252,633281,7.23828,9.17969,9.94531,0.222229,0.17871094,0.39849854,0.8717041,51.37744,-7.72689,147.67459,25,26,0.436,51452,1
61253,633290,7.27344,7.83594,9.86719,0.22406006,0.16888428,0.39129639,0.87646484,50.1015,-6.93199,148.07697,25,26,0.436,51452,1
61254,633299,6.66406,8.98828,10.01953,0.22528076,0.15899658,0.3838501,0.88128662,48.80886,-6.15917,148.5248,25,26,0.436,51452,1
61255,633309,6.27734,9.44531,9.82812,0.22668457,0.14971924,0.37567139,0.88604736,47.47041,-5.45119,148.90039,25,26,0.436,51452,1
61256,633319,5.74219,10.47656,9.25391,0.22772217,0.13995361,0.36578369,0.89147949,45.92332,-4.75754,149.32458,25,26,0.436,51452,1
61257,633330,5.35938,11.82422,9.98438,0.2286377,0.1295166,0.3536377,0.89770508,44.09965,-4.06147,149.77649,25,26,0.436,51452,1
61258,633339,5.32031,11.36328,10.21094,0.22949219,0.11846924,0.33886719,0.90466309,41.96598,-3.37196,150.23776,25,26,0.436,51452,1
61259,633349,5.24609,10.47656,10.01953,0.23028564,0.1071167,0.32183838,0.91210938,39.57809,-2.70384,150.68764,25,26,0.436,51452,1
61260,633359,5.24609,10.47656,10.01953,0.23065186,0.09545898,0.30273438,0.9197998,36.96585,-2.06046,151.15643,25,26,0.436,51452,1
61261,633370,4.55469,9.48438,8.98828,0.23077393,0.08190918,0.27862549,0.9286499,33.74215,-1.34836,151.6799,25,26,0.436,51452,1
61262,633381,3.86719,8.91016,8.98828,0.23034668,0.06872559,0.25366211,0.93695068,30.46642,-0.68324,152.18977,25,26,0.436,51452,1
61263,633390,3.82812,8.02734,8.0625,0.22930908,0.05493164,0.22570801,0.94525146,26.86399,-0.01917,152.72342,25,26,0.436,51452,1
61264,633400,3.82812,8.02734,8.0625,0.22802734,0.04187012,0.19775391,0.95245361,23.3165,0.59747,153.19569,25,26,0.436,51452,1
61265,633410,4.40234,5.88281,6.45703,0.22576904,0.02770996,0.16601562,0.95953369,19.34065,1.24829,153.73209,25,26,0.436,51452,1
61266,633419,4.40234,4.54297,6.30469,0.2230835,0.01275635,0.13110352,0.96588135,15.01604,1.93985,154.2453,25,26,0.436,51452,1
61267,633430,3.82812,4.65625,5.72656,0.21972656,-0.00097656,0.09765625,0.97064209,10.91465,2.56844,154.73502,25,26,0.436,51452,1
61268,633441,3.82812,4.65625,5.72656,0.21551514,-0.01434326,0.06359863,0.9743042,6.77273,3.17376,155.24199,25,26,0.436,51452,1
61269,633452,3.55859,4.88672,7.21875,0.21014404,-0.02819824,0.02728271,0.97686768,2.38105,3.81646,155.7984,25,26,0.436,51452,1
61270,633462,3.67578,0.51953,6.30859,0.20336914,-0.04241943,-0.01080322,0.97814941,-2.20672,4.50735,156.42284,25,26,0.436,51452,1
61271,633470,3.32812,-0.35938,8.17969,0.19641113,-0.05474854,-0.04400635,0.97802734,-6.20098,5.15211,157.01012,25,26,0.436,51452,1
61272,633480,3.32812,-0.35938,8.17969,0.18933105,-0.06555176,-0.07305908,0.97698975,-9.69661,5.76354,157.57588,25,26,0.436,51452,1
61273,633493,2.37109,-1.54688,6.57422,0.18103027,-0.07678223,-0.10314941,0.97503662,-13.32107,6.45277,158.20956,25,26,0.436,51453,1
61274,633500,2.02734,-1.54688,5.12109,0.17248535,-0.08721924,-0.13128662,0.97235107,-16.71523,7.14136,158.83141,25,26,0.436,51453,1
61275,633509,1.75781,-0.82031,3.08594,0.1628418,-0.09796143,-0.15997314,0.96862793,-20.18905,7.91381,159.50276,25,26,0.436,51453,1
61276,633521,1.79688,-3.08203,9.28906,0.15332031,-0.10778809,-0.18658447,0.9644165,-23.41985,8.66663,160.13411,25,26,0.436,51453,1
61277,633530,1.45312,-1.31641,6.10938,0.1428833,-0.11761475,-0.21331787,0.95928955,-26.68042,9.47956,160.80374,25,26,0.436,51453,1
61278,633546,0.99219,-1.31641,2.46875,0.13372803,-0.12567139,-0.23449707,0.95465088,-29.27931,10.20803,161.3786,25,26,0.436,51453,1
61279,633551,0.99219,-1.31641,2.46875,0.12322998,-0.13415527,-0.25604248,0.94934082,-31.93896,11.04711,162.03769,25,26,0.436,51453,1
61280,633561,0.45703,-2.12109,7.99219,0.11273193,-0.14190674,-0.2755127,0.9440918,-34.35086,11.87721,162.69838,25,26,0.436,51453,1
61281,633568,-0.26953,-2.96484,7.14844,0.10168457,-0.14929199,-0.29412842,0.9385376,-36.66632,12.73355,163.39806,25,26,0.436,51453,1
61282,633584,-0.61719,-3.5,2.58984,0.09057617,-0.15612793,-0.3112793,0.93304443,-38.80496,13.58859,164.10497,25,26,0.436,51453,1
61283,633589,-0.61719,-3.5,2.58984,0.07904053,-0.16253662,-0.3270874,0.92755127,-40.782,14.46657,164.85648,25,26,0.436,51453,1
61284,633601,-1.03906,-3.80859,7.15234,0.06732178,-0.16821289,-0.34106445,0.92242432,-42.52421,15.33131,165.65538,25,26,0.436,51453,1
61285,633609,-1.19141,-3.5,5.50391,0.0557251,-0.17333984,-0.35302734,0.91772461,-44.0142,16.18931,166.47055,25,26,0.436,51453,1
61286,633619,-1.30469,-4,2.93359,0.04345703,-0.17828369,-0.36395264,0.91314697,-45.3688,17.09602,167.36066,25,26,0.436,51453,1
61287,633629,-1.42188,-4.11328,2.28125,0.03149414,-0.18261719,-0.37310791,0.90905762,-46.49256,17.97111,168.25999,25,26,0.436,51453,1
61288,633640,-1.76562,-3.04297,5.61719,0.01977539,-0.18652344,-0.3807373,0.90545654,-47.41356,18.82756,169.1698,25,26,0.436,51453,1
61289,633649,-1.95703,-2.73438,4.88281,0.00756836,-0.19024658,-0.38751221,0.90197754,-48.21545,19.71473,170.1463,25,26,0.436,51453,1
61290,633659,-2.03516,-3.04297,3.24219,0.00524902,0.19372559,0.39355469,-0.89862061,-48.90565,20.62908,171.20753,25,26,0.436,51453,1
61291,633669,-2.10938,-3.38672,2.82031,0.01776123,0.19677734,0.39849854,-0.89562988,-49.44095,21.50845,172.27754,25,26,0.436,51453,1
61292,633685,-2.10938,-2.66016,5.65234,0.02984619,0.19952393,0.40228271,-0.89300537,-49.81849,22.35652,173.34215,25,26,0.436,51453,1
61293,633690,-2.10938,-2.66016,5.65234,0.04302979,0.20233154,0.40496826,-0.890625,-50.0261,23.2818,174.5509,25,26,0.436,51453,1
61294,633699,-2.26172,-3.19531,4.43359,0.05566406,0.20483398,0.40582275,-0.88897705,-49.97955,24.16423,175.77092,25,26,0.436,51453,1
61295,633709,-2.30078,-3.69141,4.11719,0.06872559,0.20739746,0.40454102,-0.88806152,-49.62569,25.08419,177.10551,26,27,0.457,51453,1
61296,633720,-2.95312,-1.625,6.53516,0.08068848,0.20983887,0.40155029,-0.88781738,-49.044,25.93784,178.39113,26,27,0.457,51453,1
61297,633729,-3.33594,-0.32031,6.23047,0.09368896,0.21252441,0.39764404,-0.88763428,-48.30436,26.86025,179.8269,26,27,0.457,51453,1
61298,633738,-3.67969,0.28906,4.27344,0.10687256,0.21484375,0.39501953,-0.88677979,-47.70483,27.7408,-178.71747,26,27,0.457,51453,1
61299,633749,-4.14062,1.13281,3.54688,0.12072754,0.21655273,0.39501953,-0.88458252,-47.42031,28.58738,-177.22563,26,27,0.457,51453,1
61300,633764,-5.55859,1.59375,5.72656,0.13500977,0.21740723,0.39825439,-0.88085938,-47.54112,29.3761,-175.74327,26,27,0.457,51453,1
61301,633769,-5.55859,1.59375,5.72656,0.15155029,0.21740723,0.40509033,-0.875,-48.08584,30.21642,-174.08324,26,27,0.457,51453,1
61302,633778,-6.66797,-0.01562,4.35156,0.16790771,0.21643066,0.41375732,-0.8682251,-48.86911,30.98034,-172.46272,26,27,0.457,51453,1
61303,633789,-7.08594,-1.50781,4.04688,0.18426514,0.21484375,0.42279053,-0.86090088,-49.70079,31.71688,-170.82768,26,27,0.457,51453,1
61304,633799,-8.125,-3.92188,5.38672,0.19946289,0.21295166,0.4307251,-0.85400391,-50.40496,32.38195,-169.26926,26,27,0.457,51453,1
61305,633809,-8.51172,-4.07422,5.57812,0.21551514,0.21081543,0.43786621,-0.84698486,-50.96808,33.08266,-167.56255,26,27,0.457,51453,1
61306,633818,-8.61719,-4.07422,5.61719,0.23022461,0.20892334,0.44287109,-0.84094238,-51.26078,33.7328,-165.93085,26,27,0.457,51453,1
61307,633829,-8.57812,-3.73047,5.42578,0.24389648,0.20721436,0.44610596,-0.83581543,-51.31813,34.33158,-164.34593,26,27,0.457,51453,1
61308,633848,-8.3125,-3.69141,6.80469,0.25689697,0.20581055,0.44769287,-0.8314209,-51.14864,34.90569,-162.77222,26,27,0.457,51453,1
61309,633852,-8.3125,-3.69141,6.80469,0.26873779,0.20495605,0.44726562,-0.82806396,-50.71412,35.43992,-161.26117,26,27,0.457,51453,1
61310,633859,-8.23438,-3.08203,6.91797,0.28070068,0.20440674,0.44519043,-0.82537842,-50.01623,35.96883,-159.65654,26,27,0.457,51453,1
61311,633869,-7.89062,-1.58594,5.00391,0.29278564,0.2041626,0.4420166,-0.82293701,-49.13969,36.50211,-157.97871,26,27,0.457,51453,1
61312,633880,-7.24219,0.17578,4.88672,0.30328369,0.20391846,0.43890381,-0.82086182,-48.31148,36.9411,-156.48431,26,27,0.457,51453,1
61313,633888,-7.32031,-0.55078,5.00391,0.31427002,0.20343018,0.43597412,-0.81842041,-47.48014,37.37209,-154.90781,26,27,0.457,51453,1
61314,633898,-7.62891,0.09766,4.3125,0.3260498,0.20233154,0.43365479,-0.81530762,-46.69922,37.78447,-153.21387,26,27,0.457,51453,1
61315,633908,-7.39453,0.02344,4.12109,0.33758545,0.20074463,0.43231201,-0.81170654,-46.06367,38.15285,-151.56282,26,27,0.457,51453,1
61316,633923,-7.85547,-1.77734,5.04297,0.34851074,0.1987915,0.43151855,-0.8079834,-45.52709,38.4626,-149.99146,26,27,0.457,51453,1
61317,633930,-8.43359,-1.625,5.04297,0.35974121,0.19659424,0.43054199,-0.80413818,-44.94536,38.74849,-148.34872,26,27,0.457,51453,1
61318,633938,-8.73828,-1.625,4.35156,0.37097168,0.19415283,0.42938232,-0.80023193,-44.33453,38.9968,-146.6752,26,27,0.457,51453,1
61319,633948,-8.66016,-1.43359,4.69531,0.38232422,0.19134521,0.42828369,-0.79614258,-43.72749,39.2073,-144.96379,26,27,0.457,51453,1
61320,633958,-9.23438,-1.92969,4.84766,0.39367676,0.18817139,0.42730713,-0.79187012,-43.14151,39.37781,-143.23547,26,27,0.457,51453,1
61321,633968,-9.42188,-2.19922,4.92578,0.40405273,0.18493652,0.42645264,-0.7878418,-42.61665,39.4949,-141.63885,26,27,0.457,51453,1
61322,633978,-9.66016,-2.69531,4.58203,0.41448975,0.18139648,0.425354,-0.78381348,-42.06021,39.56657,-140.00616,26,27,0.457,51453,1
61323,633988,-9.92578,-2.73438,4.50391,0.42462158,0.17767334,0.42401123,-0.77996826,-41.48832,39.58655,-138.39555,26,27,0.457,51453,1
61324,634003,-10.12109,-3.46484,4.84766,0.4342041,0.17401123,0.42230225,-0.77642822,-40.89235,39.56473,-136.84399,26,27,0.457,51453,1
61325,634011,-10.15625,-3.42578,4.3125,0.4440918,0.16992188,0.42022705,-0.77288818,-40.24644,39.48498,-135.22052,26,27,0.457,51453,1
61326,634019,-9.84766,-2.8125,4.46484,0.45458984,0.16534424,0.41760254,-0.76916504,-39.51923,39.34818,-133.47017,26,27,0.457,51453,1
61327,634030,-9.35547,-3.34766,4.73438,0.46362305,0.16125488,0.41491699,-0.76611328,-38.84742,39.18209,-131.94499,26,27,0.457,51453,1
61328,634039,-9.46094,-3.92188,4.77344,0.47332764,0.15667725,0.41143799,-0.76300049,-38.06338,38.94365,-130.2802,26,27,0.457,51453,1
61329,634048,-9.57812,-4.30469,5.42578,0.48193359,0.15258789,0.40765381,-0.76043701,-37.28802,38.68203,-128.77786,26,27,0.457,51453,1
61330,634058,-9.73828,-4.15234,5.23438,0.49078369,0.14837646,0.4029541,-0.75811768,-36.39727,38.35274,-127.20925,26,27,0.457,51453,1
61331,634070,-9.69531,-3.96094,5.96094,0.49914551,0.14434814,0.39782715,-0.75616455,-35.48417,37.98305,-125.70985,26,27,0.457,51453,1
61332,634083,-10.00391,-4.15234,6.53516,0.50695801,0.14038086,0.39233398,-0.7545166,-34.56813,37.56587,-124.28746,26,27,0.457,51453,1
61333,634088,-10.00391,-4.15234,6.53516,0.51501465,0.13623047,0.38604736,-0.75311279,-33.56667,37.07269,-122.81664,26,27,0.457,51453,1
61334,634098,-10.26953,-4.26953,7.03125,0.52258301,0.13201904,0.37939453,-0.7520752,-32.5704,36.51688,-121.42307,26,27,0.457,51453,1
61335,634108,-10.26562,-5.30078,6.64844,0.52996826,0.12774658,0.37194824,-0.75128174,-31.51547,35.88887,-120.04284,26,27,0.457,51453,1
61336,634119,-9.57812,-5.68359,7.33984,0.5369873,0.12341309,0.36413574,-0.75091553,-30.46389,35.19678,-118.73464,26,27,0.457,51453,1
61337,634128,-9.19922,-5.875,7.72266,0.54394531,0.11889648,0.35516357,-0.75085449,-29.31865,34.39972,-117.41694,26,27,0.457,51453,1
61338,634138,-8.81641,-6.06641,7.64453,0.550354,0.11456299,0.34576416,-0.75134277,-28.17072,33.55187,-116.20608,26,27,0.457,51453,1
61339,634149,-8.35156,-5.68359,7.99219,0.55621338,0.11035156,0.33575439,-0.75213623,-27.00458,32.65002,-115.07929,26,27,0.457,51453,1
61340,634162,-7.96875,-5.64844,7.76172,0.56158447,0.10626221,0.32556152,-0.75323486,-25.86436,31.7174,-114.05055,26,27,0.457,51453,1
61341,634169,-7.39453,-5.33984,7.68359,0.5668335,0.10186768,0.31414795,-0.75469971,-24.64555,30.65916,-113.03554,26,27,0.457,51453,1
61342,634178,-6.89844,-5.30078,7.57031,0.57189941,0.09729004,0.30206299,-0.75646973,-23.40811,29.51702,-112.06823,26,27,0.457,51453,1
61343,634189,-6.40234,-5.49219,7.10938,0.57635498,0.09283447,0.29016113,-0.75830078,-22.24219,28.37606,-111.2161,26,27,0.457,51453,1
61344,634197,-6.17188,-5.37891,6.875,0.58050537,0.0881958,0.27770996,-0.76037598,-21.0737,27.16284,-110.42625,26,27,0.457,51453,1
61345,634208,-6.09375,-5.41797,6.99609,0.58422852,0.08361816,0.26483154,-0.76257324,-19.90352,25.91186,-109.70961,26,27,0.457,51453,1
61346,634218,-6.05469,-5.76172,7.21875,0.58679199,0.07946777,0.25170898,-0.76550293,-18.74734,24.64977,-109.18773,26,27,0.457,51453,1
61347,634229,-5.55859,-6.48828,6.80469,0.58880615,0.07592773,0.23803711,-0.76867676,-17.5361,23.39388,-108.75374,26,27,0.457,51453,1
61348,634242,-5.25,-6.06641,6.42578,0.59106445,0.07305908,0.22271729,-0.77185059,-16.13026,22.08877,-108.28049,26,27,0.457,51453,1
61349,634252,-4.79297,-4,6.83594,0.59283447,0.07098389,0.20599365,-0.77532959,-14.5702,20.74997,-107.87685,26,27,0.457,51453,1
61350,634259,-4.37109,-2.77344,8.02344,0.59417725,0.0690918,0.18927002,-0.77868652,-13.03174,19.42198,-107.54858,26,27,0.457,51453,1
61351,634269,-4.75391,-1.01172,8.40625,0.59521484,0.06695557,0.17266846,-0.78192139,-11.54891,18.07515,-107.28472,26,27,0.457,51453,1
61352,634277,-5.21484,1.74609,7.91406,0.59509277,0.06329346,0.15734863,-0.7855835,-10.33569,16.6609,-107.22836,26,27,0.457,51453,1
61353,634287,-5.48047,3.20312,9.25391,0.59533691,0.05627441,0.14672852,-0.78796387,-9.8017,15.27118,-107.17229,26,27,0.457,51453,1
61354,634297,-5.86328,2.47266,11.94141,0.59539795,0.04779053,0.13897705,-0.78985596,-9.64709,13.94532,-107.1642,26,27,0.457,51453,1
61355,634309,-6.70703,1.78516,13.08594,0.59527588,0.03851318,0.13262939,-0.79156494,-9.68291,12.64285,-107.18711,26,27,0.457,51453,1
61356,634322,-7.05078,-1.08984,10.09375,0.59472656,0.02789307,0.1260376,-0.79345703,-9.79256,11.19752,-107.25634,26,27,0.457,51453,1
61357,634332,-6.89844,-1.77734,8.75781,0.59381104,0.01727295,0.11956787,-0.79553223,-9.916,9.75704,-107.37076,26,27,0.457,51453,1
61358,634337,-6.89844,-1.77734,8.75781,0.59234619,0.00646973,0.11254883,-0.79772949,-10.00372,8.25994,-107.53342,26,27,0.457,51453,1
61359,634349,-4.71484,-0.62891,12.54688,0.59057617,-0.00384521,0.10552979,-0.80004883,-10.05703,6.80513,-107.73183,26,27,0.457,51453,1
61360,634358,-3.91016,-0.32031,11.17578,0.58825684,-0.0145874,0.09753418,-0.8026123,-10.04741,5.24059,-107.98355,26,27,0.457,51453,1
61361,634367,-3.25781,-0.39844,9.71484,0.58587646,-0.02423096,0.08959961,-0.80505371,-9.96453,3.78287,-108.23952,26,27,0.457,51453,1
61362,634377,-2.91406,-0.28516,10.09375,0.58343506,-0.03356934,0.08111572,-0.80737305,-9.80523,2.3181,-108.49257,26,27,0.457,51453,1
61363,634388,-2.03516,-0.09375,11.70312,0.58093262,-0.0425415,0.07263184,-0.80957031,-9.61654,0.88859,-108.7497,26,27,0.457,51453,1
61364,634404,-1.49609,0.36719,11.20312,0.57806396,-0.05194092,0.06378174,-0.81182861,-9.41713,-0.60703,-109.04433,26,27,0.457,51453,1
61365,634409,-1.49609,0.36719,11.20312,0.57568359,-0.06182861,0.05438232,-0.8135376,-9.1942,-2.17687,-109.2562,26,27,0.457,51453,1
61366,634418,-1,0.51953,10.13672,0.57232666,-0.07055664,0.0458374,-0.81573486,-8.96563,-3.59132,-109.61069,26,27,0.457,51453,1
61367,634428,-0.42578,0.71094,11.35938,0.56842041,-0.08013916,0.03649902,-0.8180542,-8.70927,-5.14155,-110.02164,26,27,0.457,51453,1
61368,634437,-0.11719,0.86719,11.17188,0.56439209,-0.08911133,0.02832031,-0.82019043,-8.51179,-6.55805,-110.44592,26,27,0.457,51453,1
61369,634447,0.11328,1.47656,10.13672,0.55975342,-0.09936523,0.0201416,-0.82244873,-8.38488,-8.09955,-110.92738,26,27,0.457,51453,1
61370,634457,0.33984,1.70703,9.0625,0.55487061,-0.10974121,0.01306152,-0.82458496,-8.35745,-9.58328,-111.42427,26,27,0.457,51453,1
61371,634468,0.76172,1.89844,9.17969,0.54949951,-0.12072754,0.00646973,-0.82672119,-8.40124,-11.09867,-111.96045,26,27,0.457,51453,1
61372,634483,0.95312,2.47266,8.26172,0.54418945,-0.13104248,0.00109863,-0.82867432,-8.50722,-12.47325,-112.48291,26,27,0.457,51453,1
61373,634488,0.95312,2.47266,8.26172,0.53839111,-0.14343262,-0.00421143,-0.8303833,-8.74278,-14.0486,-113.0048,26,27,0.457,51453,1
61374,634500,1.375,2.97266,5.73047,0.53204346,-0.15496826,-0.00836182,-0.83239746,-9.01277,-15.47852,-113.60167,26,27,0.457,51453,1
61375,634508,1.68359,2.62891,5.69141,0.52545166,-0.16619873,-0.0123291,-0.83435059,-9.2659,-16.87523,-114.21933,26,27,0.457,51453,1
61376,634517,2.02734,2.51172,5.96484,0.51922607,-0.17590332,-0.01641846,-0.83618164,-9.39962,-18.13288,-114.82045,26,27,0.457,51453,1
61377,634527,2.25781,2.66406,5.84375,0.51263428,-0.1854248,-0.0213623,-0.83807373,-9.41738,-19.43282,-115.47723,26,27,0.457,51454,1
61378,634537,2.71484,3.125,4.39062,0.50610352,-0.19421387,-0.02697754,-0.83990479,-9.30595,-20.70395,-116.15245,26,27,0.457,51454,1
61379,634548,3.17578,2.35938,3.93359,0.49926758,-0.20251465,-0.03326416,-0.84179688,-9.07144,-21.97268,-116.89124,26,27,0.457,51454,1
61380,634557,3.29297,1.63281,5.58203,0.49285889,-0.20935059,-0.03930664,-0.84362793,-8.75579,-23.07756,-117.62099,26,27,0.457,51454,1
61381,634567,3.17578,1.59375,8.21875,0.4855957,-0.21618652,-0.0458374,-0.8458252,-8.3481,-24.21764,-118.48492,26,27,0.457,51454,1
61382,634577,3.17578,1.59375,8.21875,0.47808838,-0.22283936,-0.0512085,-0.84802246,-8.02367,-25.27188,-119.37254,26,27,0.457,51454,1
61383,634590,-0.04297,3.35547,6.80469,0.46875,-0.23114014,-0.05395508,-0.85083008,-8.01131,-26.35399,-120.41786,26,27,0.457,51454,1
61384,634597,-0.88281,2.35938,9.17969,0.45697021,-0.24169922,-0.05328369,-0.85437012,-8.41731,-27.49599,-121.65583,26,27,0.457,51454,1
61385,634607,0.99219,2.32031,8.67969,0.44256592,-0.25445557,-0.04852295,-0.85852051,-9.30821,-28.67549,-123.07388,26,27,0.457,51454,1
61386,634619,6.93359,-2.00781,6.45703,0.42724609,-0.26721191,-0.04168701,-0.86273193,-10.38161,-29.78144,-124.54093,26,27,0.457,51454,1
61387,634627,8.72656,-5.07031,7.95312,0.41210938,-0.27862549,-0.03503418,-0.86676025,-11.34043,-30.79019,-126.00953,26,27,0.457,51454,1
61388,634637,9.76562,-5.45703,9.25391,0.39556885,-0.28967285,-0.02862549,-0.87109375,-12.18214,-31.82365,-127.66888,26,27,0.457,51454,1
61389,634647,10.30078,-4.11328,9.10156,0.38031006,-0.29858398,-0.02410889,-0.875,-12.70031,-32.74239,-129.27162,26,27,0.457,51454,1
61390,634657,10.30078,-4.11328,9.10156,0.36633301,-0.30548096,-0.02154541,-0.87860107,-12.89339,-33.54695,-130.83138,26,27,0.457,51454,1
61391,634670,9.19141,-0.93359,6.23047,0.35211182,-0.31140137,-0.02038574,-0.88238525,-12.82592,-34.32756,-132.51508,26,27,0.457,51454,1
61392,634677,8.46484,-0.12891,6.34375,0.3381958,-0.31622314,-0.02069092,-0.8861084,-12.50389,-35.05882,-134.2562,26,27,0.457,51454,1
61393,634687,7.66016,-0.05469,6.72656,0.32440186,-0.32000732,-0.02246094,-0.88989258,-11.91896,-35.73839,-136.0872,26,27,0.457,51454,1
61394,634698,6.04688,-0.12891,5.07812,0.31170654,-0.32263184,-0.0255127,-0.89337158,-11.13155,-36.32436,-137.86917,26,27,0.457,51454,1
61395,634707,5.44141,0.17578,4.08203,0.29943848,-0.32452393,-0.02984619,-0.89672852,-10.13757,-36.86264,-139.68294,26,27,0.457,51454,1
61396,634716,5.05859,0.48047,3.96875,0.28717041,-0.3258667,-0.03527832,-0.90002441,-8.951,-37.36364,-141.57535,26,27,0.457,51454,1
61397,634727,4.82031,0.94141,4.35156,0.27539062,-0.32678223,-0.0413208,-0.90313721,-7.66282,-37.80838,-143.45662,26,27,0.457,51454,1
61398,634742,4.85938,1.78516,4.54297,0.26422119,-0.32739258,-0.04730225,-0.90594482,-6.37714,-38.18575,-145.27168,26,27,0.457,51454,1
61399,634747,4.85938,1.78516,4.54297,0.25201416,-0.32806396,-0.05377197,-0.90881348,-4.96117,-38.56623,-147.2659,26,27,0.457,51454,1
61400,634756,5.55078,2.08984,4.08203,0.24041748,-0.32849121,-0.05963135,-0.91143799,-3.62653,-38.86465,-149.16663,26,27,0.457,51454,1
61401,634767,5.97266,3.05078,4.3125,0.22857666,-0.32891846,-0.06512451,-0.91394043,-2.31438,-39.12534,-151.09419,26,27,0.457,51454,1
61402,634778,6.46875,4.23828,4.65625,0.21630859,-0.3293457,-0.06982422,-0.91644287,-1.07426,-39.33546,-153.05504,26,27,0.457,51454,1
61403,634786,6.625,3.89062,5.19531,0.20367432,-0.33001709,-0.07318115,-0.91882324,0.00364,-39.51452,-155.00415,26,27,0.457,51454,1
61404,634796,6.51172,2.93359,5.19531,0.19104004,-0.33056641,-0.07556152,-0.92114258,0.96001,-39.63381,-156.91248,26,27,0.457,51454,1
61405,634807,6.12891,3.58594,4.84766,0.17828369,-0.33105469,-0.07800293,-0.92333984,1.93753,-39.7285,-158.84306,26,27,0.457,51454,1
61406,634822,5.62891,3.77734,5.34766,0.1663208,-0.33123779,-0.08026123,-0.92529297,2.85968,-39.7686,-160.65437,26,27,0.457,51454,1
61407,634827,5.62891,3.77734,5.34766,0.152771,-0.33135986,-0.08233643,-0.9274292,3.84028,-39.7736,-162.6815,26,27,0.457,51454,1
61408,634836,6.12891,4.08203,5.34766,0.14044189,-0.33129883,-0.08374023,-0.92926025,4.66737,-39.73474,-164.49887,26,27,0.457,51454,1
61409,634847,6.16797,4.04688,5.46094,0.12786865,-0.33111572,-0.08410645,-0.93109131,5.36153,-39.65115,-166.29494,26,27,0.457,51454,1
61410,634858,7.16016,3.58594,5.96094,0.11572266,-0.33081055,-0.08361816,-0.93286133,5.91196,-39.53297,-167.9832,26,27,0.457,51454,1
61411,634866,7.53906,4.00781,7.10938,0.10217285,-0.33007812,-0.08282471,-0.93475342,6.48853,-39.34577,-169.84607,26,27,0.457,51454,1
61412,634876,7.62109,4.08203,7.33984,0.08990479,-0.32910156,-0.08209229,-0.93640137,7.00273,-39.13262,-171.52321,26,27,0.457,51454,1
61413,634886,7.85547,3.46875,7.10938,0.07775879,-0.32775879,-0.08123779,-0.93804932,7.48597,-38.8686,-173.16727,26,27,0.457,51454,1
61414,634901,8.23438,2.82031,7.64453,0.06646729,-0.32598877,-0.08056641,-0.9395752,7.94326,-38.55789,-174.68938,26,27,0.457,51454,1
61415,634909,8.23828,2.89453,8.06641,0.05487061,-0.32373047,-0.08007812,-0.94116211,8.42761,-38.18093,-176.24815,26,27,0.457,51454,1
61416,634917,8.11719,2.62891,8.37891,0.04296875,-0.32092285,-0.07989502,-0.94274902,8.95171,-37.7319,-177.84517,26,27,0.457,51454,1
61417,634926,8.07812,2.62891,8.44922,0.03265381,-0.31787109,-0.08032227,-0.94415283,9.46805,-37.26431,-179.23711,26,27,0.457,51454,1
61418,634937,8.00391,2.66406,8.17969,0.02282715,-0.31451416,-0.08117676,-0.94549561,10.00198,-36.75928,179.43526,26,27,0.457,51454,1
61419,634946,8.19531,2.66406,8.29688,0.01287842,-0.31060791,-0.08251953,-0.94683838,10.58518,-36.18133,178.09184,26,27,0.457,51454,1
61420,634956,8.53906,2.66406,9.02734,0.00286865,-0.30609131,-0.08447266,-0.94824219,11.22545,-35.51968,176.74089,26,27,0.457,51454,1
61421,634966,8.69141,2.05469,9.21094,0.00646973,0.3013916,0.08691406,0.94952393,11.87836,-34.83508,175.4807,26,27,0.457,51454,1
61422,634981,9.19141,1.44141,9.44922,0.01464844,0.29656982,0.09033203,0.95062256,12.59127,-34.13876,174.35399,26,27,0.457,51454,1
61423,634989,9.34375,1.86328,9.82812,0.02252197,0.29125977,0.09509277,0.95166016,13.43983,-33.37083,173.24329,26,27,0.457,51454,1
61424,634997,9.49609,1.74609,10.36719,0.03082275,0.28503418,0.10125732,0.95263672,14.44814,-32.46914,172.06612,26,27,0.457,51454,1
61425,635006,9.30469,1.86328,10.25391,0.03741455,0.27935791,0.10766602,0.95343018,15.40799,-31.64183,171.11505,26,27,0.457,51454,1
61426,635016,8.92188,2.39844,10.86328,0.04412842,0.27282715,0.11608887,0.95404053,16.59185,-30.68409,170.12167,26,27,0.457,51454,1
61427,635026,8.73047,1.13281,10.82422,0.04937744,0.26690674,0.12438965,0.95440674,17.69921,-29.81295,169.33009,26,27,0.457,51454,1
61428,635036,8.53906,1.40234,10.82031,0.05505371,0.2598877,0.13519287,0.95452881,19.09191,-28.76818,168.45901,26,27,0.457,51454,1
61429,635046,8.30859,1.51562,10.85938,0.05981445,0.25305176,0.14672852,0.95440674,20.52635,-27.73997,167.70787,26,27,0.457,51454,1
61430,635061,7.69531,0.86719,11.20703,0.06378174,0.24633789,0.15893555,0.95391846,22.00467,-26.72514,167.06094,26,27,0.457,51454,1
61431,635066,7.69531,0.86719,11.20703,0.06854248,0.23937988,0.17279053,0.95300293,23.68108,-25.62895,166.31206,26,27,0.457,51454,1
61432,635075,7.27344,1.40234,11.39844,0.07159424,0.23199463,0.18780518,0.95172119,25.42689,-24.50046,165.78716,26,27,0.457,51454,1
61433,635086,7.3125,0.98047,11.55469,0.07427979,0.2244873,0.20410156,0.94995117,27.30108,-23.34033,165.31459,26,27,0.457,51454,1
61434,635096,7.85156,1.13281,11.82031,0.07617188,0.21746826,0.22009277,0.94787598,29.11866,-22.25532,164.96219,26,27,0.457,51454,1
61435,635106,8.04297,1.09375,11.94141,0.07781982,0.2097168,0.23876953,0.94494629,31.23207,-21.05049,164.6387,26,27,0.457,51454,1
61436,635116,8.04297,1.25,11.98047,0.07879639,0.20239258,0.25708008,0.94165039,33.29187,-19.91729,164.4232,26,27,0.457,51454,1
61437,635126,7.85156,2.12891,12.04688,0.07940674,0.19500732,0.27575684,0.93786621,35.38548,-18.78379,164.2802,26,27,0.457,51454,1
61438,635145,6.96875,4.92578,11.40234,0.07971191,0.18786621,0.293396,0.93395996,37.35324,-17.70653,164.21564,26,27,0.457,51454,1
61439,635149,6.96875,4.92578,11.40234,0.08117676,0.18084717,0.30938721,0.93005371,39.14186,-16.62823,164.07549,26,27,0.457,51454,1
61440,635157,6.66406,6.45703,11.4375,0.08251953,0.17352295,0.32092285,0.9274292,40.37119,-15.59799,164.06551,26,27,0.457,51454,1
61441,635166,6.58594,9.86719,10.94141,0.08569336,0.16461182,0.32733154,0.92651367,40.94906,-14.414,164.02505,26,27,0.457,51454,1
61442,635176,6.73828,11.58984,12.77734,0.08874512,0.15795898,0.32781982,0.92718506,40.86191,-13.57617,163.98747,26,27,0.457,51454,1
61443,635186,7.23828,9.14062,13.16406,0.09240723,0.15014648,0.32598877,0.92877197,40.46724,-12.63052,163.96434,27,28,0.46,51454,1
61444,635196,7.39062,9.59766,12.8125,0.09643555,0.14123535,0.32232666,0.93103027,39.82965,-11.58547,163.96312,27,28,0.46,51454,1
61445,635207,7.50391,7.07031,11.70703,0.10040283,0.13165283,0.31665039,0.93395996,38.9376,-10.50601,164.0052,27,28,0.46,51454,1
61446,635216,6.96875,7.03125,12.00781,0.10418701,0.1217041,0.30883789,0.93756104,37.78553,-9.43015,164.0842,27,28,0.46,51454,1
61447,635226,6.35547,7.72266,11.85938,0.10797119,0.11022949,0.29748535,0.94219971,36.19009,-8.24869,164.22597,27,28,0.46,51454,1
61448,635237,6.35547,7.72266,11.85938,0.1114502,0.09851074,0.28381348,0.94726562,34.33058,-7.0867,164.38794,27,28,0.46,51454,1
61449,635248,6.05078,9.48438,11.44141,0.11505127,0.08569336,0.26629639,0.953125,32.01534,-5.85916,164.55203,27,28,0.46,51454,1
61450,635257,6.58594,9.75391,10.9375,0.11914062,0.07293701,0.2442627,0.95959473,29.19605,-4.6907,164.62276,27,28,0.46,51454,1
61451,635265,6.92969,8.25781,10.85938,0.12261963,0.06018066,0.22106934,0.96563721,26.26752,-3.55528,164.69647,27,28,0.46,51454,1
61452,635276,7.00781,7.83594,10.39844,0.12554932,0.04718018,0.19683838,0.97119141,23.23824,-2.41965,164.77046,27,28,0.46,51454,1
61453,635287,5.93359,7.99219,10.21484,0.12786865,0.03387451,0.17193604,0.97619629,20.14686,-1.27009,164.84938,27,28,0.46,51454,1
61454,635300,5.4375,7.64453,9.67578,0.12963867,0.02099609,0.14758301,0.98028564,17.14529,-0.16613,164.90813,27,28,0.46,51454,1
61455,635310,5.05469,6.80469,8.44531,0.13085938,0.00744629,0.12127686,0.98394775,13.92398,0.97902,164.96844,27,28,0.46,51454,1
61456,635317,4.40234,7.03125,7.57422,0.13146973,-0.00665283,0.09277344,0.98693848,10.45743,2.1506,165.02147,27,28,0.46,51454,1
61457,635328,4.05859,5.03906,7.22266,0.13122559,-0.02062988,0.06274414,0.98913574,6.82915,3.28372,165.08174,27,28,0.46,51454,1
61458,635335,3.86719,4.27344,5.57812,0.1305542,-0.0357666,0.02838135,0.99041748,2.69512,4.48821,165.08707,27,28,0.46,51454,1
61459,635345,3.82812,2.97266,4.73438,0.12908936,-0.04986572,-0.00567627,0.99035645,-1.38856,5.58402,165.07942,27,28,0.46,51454,1
61460,635356,3.82812,2.97266,4.73438,0.12670898,-0.06341553,-0.04016113,0.98907471,-5.51811,6.61935,165.08002,27,28,0.46,51454,1
61461,635369,3.17578,0.48047,4.43359,0.12322998,-0.07727051,-0.07733154,0.98632812,-9.97061,7.66448,165.08739,27,28,0.46,51454,1
61462,635376,2.83203,-1.125,3.62891,0.11877441,-0.09100342,-0.11517334,0.98199463,-14.51978,8.70664,165.09564,27,28,0.46,51454,1
61463,635385,2.52344,-2.42969,3.73438,0.11328125,-0.10443115,-0.15246582,0.97625732,-19.02866,9.75001,165.12448,27,28,0.46,51454,1
61464,635395,2.21875,-3.42578,4.46484,0.10723877,-0.11669922,-0.18554688,0.9697876,-23.06501,10.75121,165.17987,27,28,0.46,51454,1
61465,635407,1.49219,-4.03906,5.19531,0.10089111,-0.12780762,-0.2142334,0.96313477,-26.60023,11.70985,165.26257,27,28,0.46,51454,1
61466,635420,0.99219,-4.57422,3.89062,0.09405518,-0.1383667,-0.23980713,0.95629883,-29.78841,12.68132,165.37996,27,28,0.46,51454,1
61467,635431,0.57031,-5.11328,2.51172,0.08673096,-0.1484375,-0.26251221,0.94946289,-32.65321,13.6711,165.53928,27,28,0.46,51454,1
61468,635436,0.57031,-5.11328,2.51172,0.07861328,-0.15863037,-0.2835083,0.94250488,-35.33604,14.74015,165.74561,27,28,0.46,51454,1
61469,635446,0.1875,-4.76562,3.08594,0.07086182,-0.16741943,-0.30004883,0.9364624,-37.47715,15.72549,165.98097,27,28,0.46,51454,1
61470,635457,-0.46094,-4.76953,1.78516,0.06341553,-0.1751709,-0.31323242,0.93121338,-39.20551,16.64981,166.24203,27,28,0.46,51454,1
61471,635465,-0.73047,-5.22656,2.39844,0.05487061,-0.18322754,-0.3260498,0.92578125,-40.8978,17.66719,166.58333,27,28,0.46,51454,1
61472,635475,-0.96094,-5.49609,3.01172,0.0456543,-0.19091797,-0.33752441,0.9206543,-42.41588,18.70529,167.00867,27,28,0.46,51454,1
61473,635486,-1.76562,-3.92188,3.54688,0.03668213,-0.19775391,-0.34686279,0.91607666,-43.66128,19.68695,167.46175,27,28,0.46,51454,1
61474,635502,-2.10938,-3.80469,3.69922,0.02667236,-0.20452881,-0.35559082,0.91156006,-44.81887,20.72828,168.02228,27,28,0.46,51454,1
61475,635507,-2.10938,-3.80469,3.69922,0.01635742,-0.21087646,-0.36322021,0.90740967,-45.8208,21.76488,168.64421,27,28,0.46,51454,1
61476,635515,-2.45312,-4.10938,3.89062,0.00531006,-0.21691895,-0.36999512,0.90332031,-46.70086,22.82877,169.36363,27,28,0.46,51454,1
61477,635525,-3.22266,-2.85156,3.69531,0.00610352,0.22259521,0.37597656,-0.8994751,-47.45828,23.89284,170.15051,27,28,0.46,51454,1
61478,635536,-3.41406,-1.96875,3.92969,0.01940918,0.22845459,0.38214111,-0.89520264,-48.21245,25.07888,171.11728,27,28,0.46,51454,1
61479,635545,-3.22266,-2.00781,3.66016,0.03155518,0.23309326,0.3873291,-0.89141846,-48.81832,26.10522,172.04272,27,28,0.46,51455,1
61480,635555,-3.18359,-1.66406,3.24609,0.04498291,0.23754883,0.39282227,-0.88726807,-49.43036,27.18573,173.10396,27,28,0.46,51455,1
61481,635566,-3.14062,-1.35547,2.97266,0.05865479,0.24133301,0.39819336,-0.88305664,-49.99578,28.22398,174.22878,27,28,0.46,51455,1
61482,635579,-3.14453,-0.70703,3.125,0.07348633,0.24462891,0.40386963,-0.87841797,-50.56038,29.28435,175.49588,27,28,0.46,51455,1
61483,635589,-3.18359,0.09766,3.20703,0.08947754,0.24731445,0.41052246,-0.87310791,-51.20807,30.35266,176.89055,27,28,0.46,51455,1
61484,635597,-3.33984,-0.35938,2.85938,0.10620117,0.24902344,0.41845703,-0.86694336,-51.98901,31.37691,178.37097,27,28,0.46,51455,1
61485,635606,-4.14062,-1.31641,2.97266,0.12408447,0.24981689,0.42791748,-0.85968018,-52.93389,32.39396,179.96906,27,28,0.46,51455,1
61486,635614,-4.63281,-3.00391,2.89453,0.14239502,0.24969482,0.43786621,-0.85186768,-53.91459,33.37372,-178.35748,27,28,0.46,51455,1
61487,635625,-5.32812,-4.6875,3.01172,0.1607666,0.24884033,0.44714355,-0.84399414,-54.78184,34.31856,-176.61015,27,28,0.46,51455,1
61488,635635,-5.32812,-4.6875,3.01172,0.1774292,0.24755859,0.45440674,-0.83709717,-55.38686,35.15012,-174.94337,27,28,0.46,51455,1
61489,635648,-7.05078,-5.33984,3.96875,0.19433594,0.24591064,0.46044922,-0.83050537,-55.7877,35.97478,-173.1633,27,28,0.46,51455,1
61490,635655,-7.01172,-4.76562,4.84766,0.21057129,0.24383545,0.46484375,-0.82470703,-55.93763,36.72255,-171.34448,27,28,0.46,51455,1
61491,635665,-6.94141,-3.84766,6,0.2265625,0.24139404,0.46783447,-0.81945801,-55.86202,37.41782,-169.44728,27,28,0.46,51455,1
61492,635675,-6.74219,-3.46484,6.45703,0.24139404,0.23895264,0.46923828,-0.81512451,-55.56293,38.03233,-167.5892,28,28,0.464,51455,1
61493,635685,-6.32422,-2.58203,6.42578,0.25549316,0.23632812,0.46960449,-0.81140137,-55.10709,38.56908,-165.73552,28,28,0.464,51455,1
61494,635694,-6.47656,-2.46875,6.19141,0.2701416,0.23352051,0.46893311,-0.80786133,-54.45536,39.09675,-163.72829,28,28,0.464,51455,1
61495,635705,-6.66797,-2.73438,5.11719,0.28405762,0.23071289,0.46740723,-0.80474854,-53.68322,39.5587,-161.74422,28,28,0.464,51455,1
61496,635715,-6.66797,-2.73438,5.11719,0.29693604,0.22827148,0.46520996,-0.80206299,-52.83526,39.97465,-159.85405,28,28,0.464,51455,1
61497,635728,-6.94141,-2.62109,3.89062,0.31005859,0.22589111,0.4619751,-0.79962158,-51.80426,40.37197,-157.85742,28,28,0.464,51455,1
61498,635735,-7.01172,-2.16016,4.46484,0.32305908,0.22393799,0.45782471,-0.79742432,-50.62397,40.76463,-155.82445,28,28,0.464,51455,1
61499,635745,-7.125,-1.81641,4.62109,0.33551025,0.222229,0.45300293,-0.79553223,-49.34865,41.11186,-153.815,28,28,0.464,51455,1
61500,635756,-6.74219,-0.20703,4.00781,0.34783936,0.22064209,0.44793701,-0.79351807,-48.03119,41.43664,-151.79109,28,28,0.464,51455,1
61501,635765,-6.98047,0.32812,4.46484,0.35992432,0.21899414,0.44293213,-0.79138184,-46.72258,41.71875,-149.78046,28,28,0.464,51455,1
61502,635774,-6.90234,-0.4375,5.11719,0.37255859,0.21722412,0.43798828,-0.78875732,-45.39019,41.99416,-147.67151,28,28,0.464,51455,1
61503,635785,-7.08594,-0.62891,5.00391,0.38476562,0.2154541,0.43334961,-0.78594971,-44.11536,42.23444,-145.61987,28,28,0.464,51455,1
61504,635795,-7.08594,-0.62891,5.00391,0.39660645,0.21350098,0.42919922,-0.78283691,-42.92977,42.43628,-143.62311,28,28,0.464,51455,1
61505,635808,-7.55078,0.48047,5.26953,0.40899658,0.21118164,0.42559814,-0.77911377,-41.79767,42.62418,-141.55107,28,28,0.464,51455,1
61506,635815,-7.74219,0.98047,5.61719,0.42230225,0.20812988,0.42260742,-0.77441406,-40.72379,42.78998,-139.33797,28,28,0.464,51455,1
61507,635825,-8.04688,0.75,6.07422,0.43481445,0.20489502,0.4206543,-0.76940918,-39.84723,42.93114,-137.27899,28,28,0.464,51455,1
61508,635836,-8.73438,0.13672,6.34375,0.4475708,0.20098877,0.41955566,-0.76373291,-39.10033,43.04277,-135.19965,28,28,0.464,51455,1
61509,635845,-8.57812,-0.74219,5.88281,0.46038818,0.19647217,0.41925049,-0.75738525,-38.48737,43.13127,-133.12343,28,28,0.464,51455,1
61510,635854,-8.43359,-1.08984,6,0.47271729,0.19146729,0.41955566,-0.75085449,-38.0085,43.1757,-131.13383,28,28,0.464,51455,1
61511,635865,-8.16797,-1.24219,6,0.48510742,0.18597412,0.42028809,-0.74395752,-37.60788,43.19336,-129.13974,28,28,0.464,51455,1
61512,635875,-8.16797,-1.24219,6,0.49682617,0.18017578,0.42114258,-0.73712158,-37.28242,43.16378,-127.24049,28,28,0.464,51455,1
61513,635888,-7.89062,-2.73438,5.84375,0.50909424,0.17382812,0.42199707,-0.72979736,-36.95417,43.10498,-125.23885,28,28,0.464,51455,1
61514,635895,-7.89062,-3.38672,5.73047,0.52081299,0.16729736,0.42254639,-0.72259521,-36.63528,42.99729,-123.29416,28,28,0.464,51455,1
61515,635905,-7.89062,-3.5,5.61719,0.53295898,0.16033936,0.42285156,-0.71514893,-36.28637,42.84843,-121.2635,28,28,0.464,51455,1
61516,635916,-7.85547,-3.57812,6.15234,0.54376221,0.15393066,0.42272949,-0.70849609,-35.94498,42.67359,-119.43176,28,28,0.464,51455,1
61517,635925,-7.70703,-3.11719,6.6875,0.55566406,0.14660645,0.42193604,-0.70123291,-35.50996,42.41616,-117.37794,28,28,0.464,51455,1
61518,635934,-7.70312,-3.00391,6.6875,0.56542969,0.14044189,0.4208374,-0.6953125,-35.1166,42.16061,-115.67193,28,28,0.464,51455,1
61519,635944,-7.78516,-4.42188,6.64844,0.57611084,0.13348389,0.41900635,-0.68902588,-34.63408,41.81335,-113.78465,28,28,0.464,51455,1
61520,635959,-7.89062,-3.57812,7.26172,0.58575439,0.1272583,0.41650391,-0.68353271,-34.10563,41.44581,-112.04886,28,28,0.464,51455,1
61521,635967,-7.92969,-4.11328,7.37891,0.59521484,0.12097168,0.41326904,-0.6784668,-33.5209,41.00333,-110.32955,28,28,0.464,51455,1
61522,635974,-7.89062,-3.92188,7.10938,0.60534668,0.11431885,0.40869141,-0.67340088,-32.78026,40.44801,-108.46143,28,28,0.464,51455,1
61523,635984,-7.74219,-4.03906,6.26562,0.6137085,0.10894775,0.40380859,-0.66967773,-32.05347,39.90654,-106.90143,28,28,0.464,51455,1
61524,635995,-7.58594,-4.19141,5.5,0.62200928,0.1038208,0.39782715,-0.66638184,-31.21168,39.29175,-105.33347,28,28,0.464,51455,1
61525,636004,-7.28125,-4.07422,5.23438,0.63000488,0.09918213,0.39086914,-0.66369629,-30.27182,38.61934,-103.81184,28,28,0.464,51455,1
61526,636014,-7.00781,-3.88281,4.8125,0.63824463,0.0947876,0.38226318,-0.66143799,-29.14966,37.83341,-102.22868,28,28,0.464,51455,1
61527,636024,-6.78125,-3.23438,4.58203,0.64575195,0.09130859,0.37298584,-0.65991211,-27.9672,37.03215,-100.77758,28,28,0.464,51455,1
61528,636039,-7.28125,-2.66016,5.07812,0.652771,0.08856201,0.36303711,-0.65899658,-26.72289,36.20451,-99.42345,28,28,0.464,51455,1
61529,636044,-7.28125,-2.66016,5.07812,0.65991211,0.08642578,0.35137939,-0.65844727,-25.28506,35.28107,-98.03252,28,28,0.464,51455,1
61530,636053,-8.43359,-2.27734,6.07422,0.66680908,0.08496094,0.33856201,-0.65838623,-23.73346,34.29231,-96.69012,28,28,0.464,51455,1
61531,636064,-8.92969,-2.77344,5.92188,0.67352295,0.08428955,0.32446289,-0.65881348,-22.04717,33.23687,-95.39011,28,28,0.464,51455,1
61532,636075,-9.62109,-3.15625,6.15234,0.67932129,0.08465576,0.31018066,-0.65960693,-20.349,32.21766,-94.24696,28,28,0.464,51455,1
61533,636084,-9.88672,-3.19531,6.30469,0.68511963,0.08618164,0.29364014,-0.66107178,-18.38591,31.08255,-93.10718,28,28,0.464,51455,1
61534,636094,-10.42188,-3.00391,6.23047,0.69036865,0.08886719,0.27581787,-0.66290283,-16.27859,29.91018,-92.0501,28,28,0.464,51455,1
61535,636104,-10.6875,-2.66016,6.15234,0.69488525,0.09265137,0.25738525,-0.66503906,-14.09968,28.74763,-91.11591,28,28,0.464,51455,1
61536,636119,-10.42188,-2.92578,6,0.69866943,0.09710693,0.23895264,-0.66729736,-11.93353,27.61436,-90.31139,28,28,0.464,51455,1
61537,636124,-10.42188,-2.92578,6,0.70220947,0.10290527,0.21826172,-0.66986084,-9.50168,26.38354,-89.53082,28,28,0.464,51455,1
61538,636133,-9.53906,-2.42969,7.14844,0.70495605,0.10931396,0.19750977,-0.67242432,-7.07652,25.17911,-88.87636,28,28,0.464,51455,1
61539,636144,-9.11719,-1.69922,7.80078,0.70703125,0.11657715,0.17553711,-0.67504883,-4.52708,23.92974,-88.30857,28,28,0.464,51455,1
61540,636155,-8.43359,-0.58984,8.14453,0.70697021,0.12408447,0.15447998,-0.67889404,-2.13199,22.76295,-88.10802,28,28,0.464,51455,1
61541,636164,-8.27734,1.05859,8.87109,0.7064209,0.13195801,0.13153076,-0.68280029,0.41975,21.47214,-87.97223,28,28,0.464,51455,1
61542,636179,-8.08594,1.36328,8.98828,0.70507812,0.13812256,0.1114502,-0.68658447,2.5502,20.29273,-88.02084,28,28,0.464,51455,1
61543,636184,-8.08594,1.36328,8.98828,0.70507812,0.14239502,0.09179688,-0.68859863,4.51163,18.99902,-87.88975,28,28,0.464,51455,1
61544,636195,-7.85547,7.68359,11.74609,0.70477295,0.14099121,0.0769043,-0.69104004,5.56706,17.65297,-88.00748,28,28,0.464,51455,1
61545,636204,-8.125,8.94922,13.01172,0.7053833,0.13360596,0.07104492,-0.69250488,5.39331,16.57474,-88.15817,28,28,0.464,51455,1
61546,636213,-7.78125,8.375,16.22656,0.70635986,0.12023926,0.0690918,-0.69415283,4.39738,15.33902,-88.40878,28,28,0.464,51455,1
61547,636224,-7.47266,5.11719,18.30078,0.70684814,0.10418701,0.06878662,-0.69622803,3.04334,14.02412,-88.75824,28,28,0.464,51455,1
61548,636234,-5.98047,-1.125,17.52734,0.7064209,0.08618164,0.06762695,-0.69921875,1.59581,12.47885,-89.23838,28,28,0.464,51455,1
61549,636244,-5.21484,-3.00391,15.57422,0.70458984,0.06658936,0.0647583,-0.70355225,0.15826,10.65781,-89.9008,28,28,0.464,51455,1
61550,636255,-5.21484,-3.00391,15.57422,0.70178223,0.05065918,0.06121826,-0.70794678,-0.90373,9.07061,-90.57278,28,28,0.464,51455,1
61551,636266,-4.37109,-4.07422,13.96484,0.69818115,0.03540039,0.05718994,-0.71276855,-1.85499,7.48808,-91.30608,28,28,0.464,51455,1
61552,636276,-1,1.01953,17.03125,0.69354248,0.01934814,0.05310059,-0.71820068,-2.84833,5.82244,-92.14619,28,28,0.464,51455,1
61553,636284,-0.5,1.25,16.03125,0.68865967,0.00396729,0.04962158,-0.72338867,-3.81347,4.24853,-92.95929,28,28,0.464,51455,1
61554,636294,-0.34766,0.67578,14,0.68347168,-0.01257324,0.04675293,-0.72833252,-4.89809,2.61337,-93.75178,28,28,0.464,51455,1
61555,636304,-0.34766,-0.20703,12.81641,0.67785645,-0.02893066,0.04449463,-0.73327637,-5.9979,1.02528,-94.5518,28,28,0.464,51455,1
61556,636313,-0.30859,-1.73828,13.77344,0.67132568,-0.04602051,0.04229736,-0.73852539,-7.13872,-0.64081,-95.41783,28,28,0.464,51455,1
61557,636323,-0.46094,-2.96484,13.12891,0.66436768,-0.06213379,0.03991699,-0.74371338,-8.16652,-2.25703,-96.2893,28,28,0.464,51455,1
61558,636338,-1.07422,-2.27734,12.74219,0.65740967,-0.07623291,0.03692627,-0.7487793,-8.96682,-3.76186,-97.14026,28,28,0.464,51455,1
61559,636343,-1.07422,-2.27734,12.74219,0.6506958,-0.09008789,0.03210449,-0.7532959,-9.57524,-5.39058,-97.90738,28,28,0.464,51455,1
61560,636354,-1.91797,-1.31641,11.09766,0.64294434,-0.10217285,0.02612305,-0.75860596,-9.92129,-6.97456,-98.82906,28,28,0.464,51455,1
61561,636363,-2.22656,-0.85938,10.63281,0.63470459,-0.11395264,0.0189209,-0.76403809,-10.11146,-8.63376,-99.80031,28,28,0.464,51455,1
61562,636373,-2.41797,-0.24609,9.25391,0.62670898,-0.12487793,0.01177979,-0.769104,-10.22143,-10.2137,-100.73396,28,28,0.464,51455,1
61563,636385,-2.14844,2.08984,7.91406,0.61853027,-0.13592529,0.00494385,-0.77392578,-10.34526,-11.78665,-101.66477,28,28,0.464,51455,1
61564,636393,-1.80469,2.32031,7.45312,0.60980225,-0.14782715,-0.00164795,-0.77862549,-10.52849,-13.42783,-102.62262,28,28,0.464,51455,1
61565,636403,-1.38281,2.05469,6.99219,0.60144043,-0.15924072,-0.0067749,-0.78283691,-10.79291,-14.92039,-103.51366,28,28,0.464,51455,1
61566,636419,-1.03906,2.24609,6.22656,0.59283447,-0.17108154,-0.01098633,-0.78686523,-11.15254,-16.39529,-104.39868,28,28,0.464,51455,1
61567,636424,-1.03906,2.24609,6.22656,0.58319092,-0.18530273,-0.01495361,-0.79077148,-11.68288,-18.08987,-105.31665,28,28,0.464,51455,1
61568,636434,-0.19531,2.58984,4.66016,0.57440186,-0.19689941,-0.01733398,-0.79437256,-12.16073,-19.43424,-106.16943,28,28,0.464,51455,1
61569,636443,0.03516,2.39844,4.19531,0.56396484,-0.21032715,-0.01971436,-0.79827881,-12.73165,-20.98112,-107.1525,28,28,0.464,51455,1
61570,636453,0.33984,2.55078,3.69531,0.55389404,-0.22259521,-0.02185059,-0.80200195,-13.22725,-22.41035,-108.10749,28,28,0.464,51455,1
61571,636465,1.03125,1.17188,3.12891,0.54364014,-0.23413086,-0.02404785,-0.80560303,-13.64339,-23.79124,-109.0881,28,28,0.464,51455,1
61572,636473,1.56641,1.40234,3.42969,0.53271484,-0.24554443,-0.02667236,-0.80944824,-13.97072,-25.20959,-110.16165,28,28,0.464,51455,1
61573,636483,2.37109,1.51562,3.47266,0.52246094,-0.25537109,-0.02929688,-0.81298828,-14.17573,-26.47746,-111.19578,28,28,0.464,51456,1
61574,636494,2.37109,1.51562,3.47266,0.51184082,-0.26464844,-0.03192139,-0.81671143,-14.30553,-27.70595,-112.30336,28,28,0.464,51456,1
61575,636507,4.70703,2.20703,7.22266,0.49975586,-0.27471924,-0.03387451,-0.82073975,-14.49974,-29.00002,-113.5561,28,28,0.464,51456,1
61576,636514,4.29297,2.39844,2.62891,0.48669434,-0.28527832,-0.03393555,-0.82501221,-14.86929,-30.24659,-114.8857,28,28,0.464,51456,1
61577,636523,4.21484,2.4375,2.66406,0.47131348,-0.29754639,-0.03131104,-0.82965088,-15.55528,-31.55044,-116.37992,28,28,0.464,51456,1
61578,636533,4.63281,1.01953,6.03516,0.4553833,-0.30981445,-0.02667236,-0.83422852,-16.41747,-32.76538,-117.88515,28,28,0.464,51456,1
61579,636544,5.70312,-0.66797,4.3125,0.43896484,-0.32165527,-0.0211792,-0.83868408,-17.30869,-33.92677,-119.42873,28,28,0.464,51456,1
61580,636553,6.39062,-1.05078,4.50391,0.42297363,-0.33209229,-0.01580811,-0.84295654,-18.07888,-34.97657,-120.96828,28,28,0.464,51456,1
61581,636563,6.46875,-1.24219,5.07812,0.40625,-0.34185791,-0.01080322,-0.84735107,-18.71037,-36.02296,-122.63829,28,28,0.464,51456,1
61582,636574,6.46875,-1.24219,5.07812,0.39111328,-0.34954834,-0.00708008,-0.85137939,-19.08148,-36.92035,-124.23043,28,28,0.464,51456,1
61583,636587,6.16406,0.13672,5.88281,0.37567139,-0.35626221,-0.00421143,-0.85552979,-19.244,-37.78859,-125.94478,28,28,0.464,51456,1
61584,636594,6.35156,0.02344,5.34766,0.36132812,-0.36126709,-0.00244141,-0.85961914,-19.16773,-38.52487,-127.64886,28,28,0.464,51456,1
61585,636602,6.54688,-0.39844,5.19531,0.34716797,-0.36505127,-0.00201416,-0.86383057,-18.82082,-39.20422,-129.45459,28,28,0.464,51456,1
61586,636613,6.51172,-0.4375,5.5,0.3338623,-0.36737061,-0.00317383,-0.86810303,-18.1822,-39.7863,-131.2999,28,28,0.464,51456,1
61587,636624,6.66797,-0.32031,5.57812,0.32244873,-0.3682251,-0.00585938,-0.87200928,-17.31924,-40.23857,-133.02687,28,28,0.464,51456,1
61588,636632,6.69531,-0.12891,4.69531,0.31091309,-0.36798096,-0.01043701,-0.8762207,-16.1102,-40.64637,-134.92625,28,28,0.464,51456,1
61589,636643,6.69922,0.36719,4.42969,0.3001709,-0.36663818,-0.01660156,-0.88043213,-14.6424,-40.9645,-136.85269,28,28,0.464,51456,1
61590,636654,6.69922,0.36719,4.42969,0.29058838,-0.36474609,-0.02331543,-0.88427734,-13.11619,-41.19644,-138.66907,28,28,0.464,51456,1
61591,636667,6.16406,1.01953,4.3125,0.28094482,-0.36224365,-0.03100586,-0.88818359,-11.41022,-41.36943,-140.5739,28,28,0.464,51456,1
61592,636674,5.89062,2.89453,4.3125,0.2711792,-0.35919189,-0.03900146,-0.89215088,-9.61805,-41.45656,-142.53841,28,28,0.464,51456,1
61593,636682,5.78125,2.24609,3.39453,0.26104736,-0.355896,-0.046875,-0.89611816,-7.80878,-41.47562,-144.55684,28,28,0.464,51456,1
61594,636692,5.93359,1.21094,3.39453,0.25109863,-0.35241699,-0.05493164,-0.89984131,-5.98198,-41.44023,-146.55215,28,28,0.464,51456,1
61595,636704,6.00781,1.55469,4.77344,0.24182129,-0.34863281,-0.06317139,-0.90332031,-4.16102,-41.33086,-148.45631,28,28,0.464,51456,1
61596,636712,6.27344,2.16797,5.15625,0.23193359,-0.34436035,-0.0723877,-0.90686035,-2.16528,-41.15842,-150.49466,28,28,0.464,51456,1
61597,636722,6.58594,1.89844,5.30859,0.22259521,-0.34002686,-0.08129883,-0.91009521,-0.25761,-40.9253,-152.41618,28,28,0.464,51456,1
61598,636732,6.58594,1.89844,5.30859,0.21374512,-0.33569336,-0.08996582,-0.91296387,1.56839,-40.64938,-154.2272,28,28,0.464,51456,1
61599,636745,6.58594,3.16406,7.07031,0.20465088,-0.33105469,-0.09912109,-0.91583252,3.46234,-40.30957,-156.07851,28,28,0.464,51456,1
61600,636752,6.54688,2.78125,7.14844,0.19494629,-0.32580566,-0.10900879,-0.91864014,5.47756,-39.87681,-158.02611,28,28,0.464,51456,1
61601,636762,6.43359,3.66016,7.07031,0.18609619,-0.32073975,-0.11853027,-0.92114258,7.36147,-39.41797,-159.79707,28,28,0.464,51456,1
61602,636772,6.43359,3.46875,7.37891,0.17730713,-0.31542969,-0.12835693,-0.92333984,9.25711,-38.9054,-161.53561,28,28,0.464,51456,1
61603,636783,6.47266,4.39062,7.41797,0.16900635,-0.31018066,-0.13787842,-0.92529297,11.05263,-38.36361,-163.15337,28,28,0.464,51456,1
61604,636792,6.89062,5.00391,7.68359,0.15991211,-0.30432129,-0.14807129,-0.92730713,12.95072,-37.71623,-164.87155,28,28,0.464,51456,1
61605,636802,7.27344,4.46484,8.26172,0.15124512,-0.29870605,-0.15759277,-0.92901611,14.69698,-37.06149,-166.457,28,28,0.464,51456,1
61606,636812,7.27344,4.46484,8.26172,0.14300537,-0.29321289,-0.16668701,-0.93048096,16.33041,-36.39368,-167.92599,28,28,0.464,51456,1
61607,636825,8.04297,2.66406,8.76172,0.13470459,-0.28729248,-0.17645264,-0.9317627,18.02509,-35.65584,-169.38766,28,28,0.464,51456,1
61608,636832,7.96484,4.12109,9.91016,0.12640381,-0.28057861,-0.18792725,-0.93273926,19.91336,-34.81374,-170.86507,28,28,0.464,51456,1
61609,636842,7.88672,4.16016,10.05469,0.1194458,-0.27441406,-0.1986084,-0.93328857,21.60525,-34.03068,-172.09705,28,28,0.464,51456,1
61610,636852,7.77344,3.58594,9.63281,0.112854,-0.2677002,-0.21020508,-0.93347168,23.37267,-33.1786,-173.26535,28,28,0.464,51456,1
61611,636863,7.88672,4.08203,9.52734,0.10638428,-0.26062012,-0.22247314,-0.93341064,25.1884,-32.26743,-174.39139,28,28,0.464,51456,1
61612,636872,8.11719,3.39453,10.09766,0.10083008,-0.25396729,-0.23394775,-0.93304443,26.84117,-31.40736,-175.34064,28,28,0.464,51456,1
61613,636882,8.07812,4.46484,10.79297,0.09490967,-0.24639893,-0.24725342,-0.93225098,28.71147,-30.42246,-176.33534,28,28,0.464,51456,1
61614,636892,8.07812,4.46484,10.79297,0.08984375,-0.23925781,-0.25982666,-0.93121338,30.43491,-29.49157,-177.16858,28,28,0.464,51456,1
61615,636905,8.07812,3.89062,9.90625,0.0847168,-0.23150635,-0.27325439,-0.92980957,32.24097,-28.47784,-177.97752,28,28,0.464,51456,1
61616,636912,8.07812,4.19922,10.09375,0.07940674,-0.22314453,-0.28771973,-0.92797852,34.15398,-27.37605,-178.776,28,28,0.464,51456,1
61617,636922,8.07812,4.46484,10.51562,0.07495117,-0.21563721,-0.30029297,-0.92614746,35.78963,-26.38621,-179.40373,28,28,0.464,51456,1
61618,636932,8.11719,4.77344,10.32812,0.07037354,-0.20770264,-0.31292725,-0.92407227,37.41527,-25.33689,-179.99564,28,28,0.464,51456,1
61619,636942,7.85156,6.38281,10.13281,0.06555176,-0.19958496,-0.32501221,-0.92205811,38.95311,-24.24796,179.44383,28,28,0.464,51456,1
61620,636952,7.92578,8.29688,9.82812,0.06109619,-0.19207764,-0.33453369,-0.92059326,40.14662,-23.23578,179.00087,28,28,0.464,51456,1
61621,636962,8.04297,9.52344,10.51953,0.05578613,-0.18450928,-0.34179688,-0.9197998,41.0552,-22.18222,178.54546,28,28,0.464,51456,1
61622,636972,8.04297,9.52344,10.51953,0.04998779,-0.17779541,-0.34448242,-0.92047119,41.38694,-21.20676,178.12712,28,28,0.464,51456,1
61623,636985,8.42578,12.66797,11.32422,0.04394531,-0.17181396,-0.3425293,-0.92260742,41.13701,-20.31279,177.76245,28,28,0.464,51456,1
61624,636992,8.76953,13.61719,11.05469,0.03588867,-0.16455078,-0.3348999,-0.92706299,40.1732,-19.21697,177.34898,29,28,0.468,51456,1
61625,637002,8.92188,13.46875,11.39844,0.027771,-0.15704346,-0.32366943,-0.93261719,38.75865,-18.11403,176.99274,29,28,0.468,51456,1
61626,637014,9.07422,10.01953,12.97266,0.019104,-0.14813232,-0.3092041,-0.93920898,36.93976,-16.86156,176.66222,29,28,0.468,51456,1
61627,637023,8.96094,7.33984,12.58984,0.01043701,-0.13946533,-0.29217529,-0.94610596,34.82922,-15.6634,176.3233,29,28,0.468,51456,1
61628,637038,8.30859,5.80859,11.20703,0.00164795,-0.1305542,-0.27459717,-0.95263672,32.6744,-14.45707,175.93982,29,28,0.468,51456,1
61629,637043,8.30859,5.80859,11.20703,0.00744629,0.12109375,0.25726318,0.9586792,30.56534,-13.20029,175.48824,29,28,0.468,51456,1
61630,637052,6.54688,4.62109,11.32031,0.01513672,0.11102295,0.24053955,0.96417236,28.52266,-11.93487,175.15726,29,28,0.468,51456,1
61631,637061,5.20703,7.49219,11.47656,0.02264404,0.10003662,0.2230835,0.96936035,26.39965,-10.59409,174.83215,29,28,0.468,51456,1
61632,637076,5.4375,7.68359,10.78906,0.02923584,0.08935547,0.20629883,0.97393799,24.36433,-9.3229,174.54431,29,28,0.468,51456,1
61633,637083,5.89453,7.14844,10.01562,0.03570557,0.07788086,0.1885376,0.97833252,22.21759,-7.98536,174.2493,29,28,0.468,51456,1
61634,637093,5.62891,5.26953,9.33203,0.04180908,0.06585693,0.16967773,0.98242188,19.94751,-6.61557,173.96161,29,28,0.468,51456,1
61635,637101,5.16797,4.69531,9.63281,0.04711914,0.05419922,0.15118408,0.98590088,17.72912,-5.31443,173.69806,29,28,0.468,51456,1
61636,637112,5.01562,4.58203,9.5625,0.05218506,0.04168701,0.13098145,0.98913574,15.31299,-3.94491,173.42941,29,28,0.468,51456,1
61637,637122,4.86328,4.46484,8.33984,0.05670166,0.02947998,0.11083984,0.99176025,12.91123,-2.63117,173.15784,29,28,0.468,51456,1
61638,637137,4.63281,4.35156,6.69141,0.06097412,0.01715088,0.09051514,0.99389648,10.48971,-1.32098,172.8575,29,28,0.468,51456,1
61639,637142,4.63281,4.35156,6.69141,0.06500244,0.00402832,0.06744385,0.99560547,7.74797,0.04279,172.53189,29,28,0.468,51456,1
61640,637152,4.48047,4.96484,5.5,0.0682373,-0.00860596,0.04370117,0.99664307,4.93139,1.32478,172.22353,29,28,0.468,51456,1
61641,637162,4.40234,5.00391,6.10938,0.07086182,-0.02172852,0.0166626,0.99713135,1.72947,2.61887,171.90967,29,28,0.468,51456,1
61642,637177,3.89844,3.16406,3.81641,0.0725708,-0.03424072,-0.01104736,0.9967041,-1.55017,3.82181,171.61948,29,28,0.468,51456,1
61643,637182,3.89844,3.16406,3.81641,0.07342529,-0.04785156,-0.04321289,0.99523926,-5.35961,5.10017,171.32225,29,28,0.468,51456,1
61644,637192,3.63672,2.55078,6.1875,0.07324219,-0.06085205,-0.07458496,0.99267578,-9.08747,6.30859,171.05859,29,28,0.468,51456,1
61645,637202,3.55859,1.13281,5.38281,0.07202148,-0.07385254,-0.10668945,0.9888916,-12.91939,7.51036,170.8174,29,28,0.468,51456,1
61646,637217,3.36719,-1.24219,3.625,0.06994629,-0.08599854,-0.13647461,0.98443604,-16.49586,8.63992,170.61694,29,28,0.468,51456,1
61647,637222,3.36719,-1.24219,3.625,0.06671143,-0.09881592,-0.16760254,0.9786377,-20.26235,9.84838,170.43663,29,28,0.468,51456,1
61648,637231,3.0625,-2.19922,4.96484,0.06280518,-0.11077881,-0.19561768,0.97235107,-23.68693,11.00355,170.2944,29,28,0.468,51456,1
61649,637242,2.79297,-3.19531,5.23438,0.05822754,-0.12207031,-0.22058105,0.96594238,-26.77021,12.13053,170.20393,29,28,0.468,51456,1
61650,637253,2.21875,-4.84375,3.05078,0.05334473,-0.13232422,-0.24169922,0.95977783,-29.41015,13.19283,170.16089,29,28,0.468,51456,1
61651,637261,1.75781,-4.65234,3.77734,0.04748535,-0.14300537,-0.26141357,0.95336914,-31.90714,14.35081,170.1749,29,28,0.468,51456,1
61652,637271,1.22266,-4.46094,4.57812,0.04162598,-0.15270996,-0.27728271,0.94769287,-33.94586,15.44682,170.22932,29,28,0.468,51456,1
61653,637282,0.80078,-4.72656,4.96484,0.03540039,-0.1619873,-0.29034424,0.94244385,-35.65285,16.54529,170.34378,29,28,0.468,51456,1
61654,637297,-0.30859,-4.04297,3.96875,0.0291748,-0.17034912,-0.30059814,0.93792725,-37.01092,17.57954,170.51151,29,28,0.468,51456,1
61655,637302,-0.30859,-4.04297,3.96875,0.02197266,-0.17926025,-0.30963135,0.93353271,-38.2257,18.72902,170.76183,29,28,0.468,51456,1
61656,637311,-1.64844,-2.39062,5.96484,0.01483154,-0.18713379,-0.31646729,0.92987061,-39.15104,19.79258,171.07237,29,28,0.468,51456,1
61657,637322,-2.22656,-2.54297,7.33594,0.00726318,-0.19458008,-0.32275391,0.9262085,-40.00018,20.84089,171.44257,29,28,0.468,51456,1
61658,637333,-2.83594,-1.69922,5.26562,0.00067139,0.20129395,0.32928467,-0.92248535,-40.85946,21.8298,171.86636,29,28,0.468,51456,1
61659,637341,-3.06641,-1.96875,4.92188,0.00976562,0.20770264,0.33728027,-0.91815186,-41.88151,22.82973,172.38243,29,28,0.468,51456,1
61660,637351,-3.03125,-2.3125,5.03906,0.02026367,0.21380615,0.34692383,-0.91296387,-43.09246,23.85738,173.00665,29,28,0.468,51456,1
61661,637361,-2.875,-2.69531,4.61719,0.03100586,0.21899414,0.35650635,-0.90771484,-44.27595,24.81512,173.68361,29,28,0.468,51456,1
61662,637376,-2.45312,-3.92188,4.57812,0.04174805,0.22332764,0.3651123,-0.90283203,-45.3128,25.70431,174.41487,29,28,0.468,51456,1
61663,637384,-2.37891,-3.19531,4.54297,0.05340576,0.22735596,0.37286377,-0.89801025,-46.21606,26.62604,175.2756,29,28,0.468,51456,1
61664,637392,-2.30078,-2.77344,4.39453,0.06628418,0.23095703,0.38000488,-0.89324951,-46.99856,27.57865,176.30574,29,28,0.468,51456,1
61665,637401,-2.14844,-2.04688,4.35156,0.07830811,0.23345947,0.38616943,-0.88891602,-47.64042,28.39605,177.32248,29,28,0.468,51456,1
61666,637411,-2.95312,-0.70703,4.35156,0.09228516,0.23529053,0.39416504,-0.88360596,-48.46587,29.24582,178.52898,29,28,0.468,51456,1
61667,637421,-3.64062,-1.20312,3.8125,0.10534668,0.23590088,0.4029541,-0.87799072,-49.39621,29.94338,179.66093,29,28,0.468,51456,1
61668,637431,-4.52734,-2.35156,3.89062,0.12091064,0.23547363,0.41424561,-0.87084961,-50.59564,30.6821,-178.96721,29,28,0.468,51456,1
61669,637441,-5.59766,-4.61328,4.8125,0.13616943,0.23425293,0.425354,-0.86352539,-51.77147,31.35892,-177.59117,29,28,0.468,51456,1
61670,637456,-7.92969,-5.57031,5.15625,0.15045166,0.23242188,0.43511963,-0.85675049,-52.77481,31.95012,-176.24722,29,28,0.468,51456,1
61671,637464,-8.85547,-6.60547,3.625,0.16516113,0.2300415,0.44403076,-0.85009766,-53.63852,32.53226,-174.79305,29,28,0.468,51456,1
61672,637472,-9.62109,-6.375,3.46875,0.18054199,0.22692871,0.4519043,-0.84362793,-54.3237,33.09662,-173.17758,29,28,0.468,51456,1
61673,637481,-10.12109,-6.375,4.58203,0.19317627,0.22399902,0.45690918,-0.83886719,-54.66714,33.52926,-171.76437,29,28,0.468,51456,1
61674,637492,-10.19141,-5.22656,4.42969,0.20672607,0.22070312,0.46069336,-0.83447266,-54.79309,33.97286,-170.16478,29,28,0.468,51456,1
61675,637501,-9.46094,-4.53516,3.85156,0.21887207,0.2175293,0.46264648,-0.83111572,-54.68764,34.3394,-168.64764,29,28,0.468,51456,1
61676,637511,-8.46875,-4.15234,3.54688,0.23126221,0.21435547,0.46337891,-0.82818604,-54.3892,34.70507,-167.03848,30,29,0.48,51456,1
61677,637521,-7.96875,-3.80859,3.43359,0.24328613,0.21130371,0.46307373,-0.82568359,-53.94545,35.04662,-165.42278,30,29,0.48,51456,1
61678,637540,-7.93359,-3.38672,2.51172,0.25476074,0.20855713,0.46191406,-0.82354736,-53.391,35.37124,-163.84016,30,29,0.48,51456,1
61679,637544,-7.93359,-3.38672,2.51172,0.26696777,0.20581055,0.46014404,-0.8213501,-52.71766,35.7172,-162.12943,30,29,0.48,51457,1
61680,637552,-7.85547,-3.34766,2.78125,0.2791748,0.20306396,0.45806885,-0.81915283,-51.99165,36.04612,-160.39183,30,29,0.48,51457,1
61681,637561,-7.51172,-3.46484,3.43359,0.2911377,0.20037842,0.45581055,-0.81689453,-51.24326,36.35509,-158.66617,30,29,0.48,51457,1
61682,637572,-8.04688,-3.61719,3.24219,0.30316162,0.19769287,0.45330811,-0.81451416,-50.45334,36.65189,-156.90837,30,29,0.48,51457,1
61683,637581,-8.01172,-4.15234,3.39453,0.31561279,0.19482422,0.45068359,-0.81195068,-49.62188,36.93365,-155.06947,30,29,0.48,51457,1
61684,637591,-8.01172,-4.03906,4.35156,0.32794189,0.19189453,0.44787598,-0.80932617,-48.76373,37.18443,-153.22153,30,29,0.48,51457,1
61685,637602,-7.55078,-4,4.3125,0.33996582,0.18902588,0.44476318,-0.8067627,-47.86821,37.40275,-151.3886,30,29,0.48,51457,1
61686,637617,-7.54688,-3.38672,4.23828,0.35131836,0.1862793,0.44152832,-0.80432129,-46.97702,37.58141,-149.63158,30,29,0.48,51457,1
61687,637624,-7.58984,-3.5,4.27344,0.36303711,0.18347168,0.43798828,-0.80169678,-46.02661,37.74755,-147.79854,30,29,0.48,51457,1
61688,637631,-7.62891,-3.34766,4.50391,0.37518311,0.18054199,0.43414307,-0.79882812,-45.01672,37.89615,-145.87782,30,29,0.48,51457,1
61689,637642,-7.08984,-3.42578,4.65625,0.38720703,0.1776123,0.43035889,-0.79577637,-44.02062,38.02387,-143.96567,30,29,0.48,51457,1
61690,637651,-6.78125,-3.53906,4.12109,0.39904785,0.17468262,0.42681885,-0.79248047,-43.06803,38.13646,-142.07959,30,29,0.48,51457,1
61691,637661,-6.59766,-3.30859,3.73828,0.41125488,0.17156982,0.42346191,-0.78875732,-42.13026,38.23877,-140.13589,30,29,0.48,51457,1
61692,637671,-6.55859,-3.08203,3.96875,0.42321777,0.16827393,0.42059326,-0.78466797,-41.28029,38.32078,-138.2318,30,29,0.48,51457,1
61693,637682,-6.82422,-3.57812,4.35156,0.43554688,0.16467285,0.41802979,-0.7800293,-40.46852,38.39172,-136.27034,30,29,0.48,51457,1
61694,637695,-6.86328,-3.11719,4.39062,0.44726562,0.16088867,0.41607666,-0.77520752,-39.7783,38.43592,-134.40889,30,29,0.48,51457,1
61695,637705,-7.35938,-4.15234,4.54297,0.45953369,0.15649414,0.41455078,-0.76971436,-39.14614,38.45704,-132.463,30,29,0.48,51457,1
61696,637712,-7.39062,-4.34375,5.11719,0.47210693,0.15155029,0.41326904,-0.76379395,-38.55717,38.44077,-130.46407,30,29,0.48,51457,1
61697,637722,-7.43359,-5.83984,5.34766,0.48504639,0.14611816,0.41204834,-0.75732422,-37.98727,38.39485,-128.39127,30,29,0.48,51457,1
61698,637730,-7.28516,-6.75781,5.38672,0.49737549,0.140625,0.4105835,-0.75115967,-37.4241,38.29466,-126.39429,30,29,0.48,51457,1
61699,637740,-7.35938,-6.52734,5.88281,0.50915527,0.13531494,0.40869141,-0.74530029,-36.83337,38.15887,-124.46146,30,29,0.48,51457,1
61700,637750,-7.81641,-6.75781,6.07422,0.52081299,0.12988281,0.40606689,-0.73956299,-36.17251,37.95975,-122.5099,30,29,0.48,51457,1
61701,637762,-8.35156,-6.18359,5.73047,0.53192139,0.12469482,0.40283203,-0.73431396,-35.46198,37.71199,-120.62603,30,29,0.48,51457,1
61702,637775,-8.81641,-5.68359,5.84375,0.54290771,0.11968994,0.39862061,-0.72943115,-34.64077,37.40273,-118.73246,30,29,0.48,51457,1
61703,637785,-8.93359,-6.06641,6.03516,0.55358887,0.11486816,0.39343262,-0.72491455,-33.72462,37.0256,-116.85542,30,29,0.48,51457,1
61704,637793,-8.8125,-6.33594,6.07422,0.56420898,0.11029053,0.38720703,-0.7208252,-32.69339,36.57848,-114.97148,30,29,0.48,51457,1
61705,637800,-8.77734,-5.72266,5.96094,0.57434082,0.10614014,0.38024902,-0.71710205,-31.60125,36.08867,-113.15048,30,29,0.48,51457,1
61706,637810,-7.89453,-4.80469,5.5,0.58496094,0.10198975,0.37176514,-0.71362305,-30.33536,35.48378,-111.2308,30,29,0.48,51457,1
61707,637820,-7.50781,-4.57422,5.96094,0.59448242,0.09844971,0.36303711,-0.71069336,-29.09282,34.86071,-109.49118,30,29,0.48,51457,1
61708,637830,-7.20703,-4.95703,6.03516,0.60375977,0.09533691,0.35327148,-0.70819092,-27.752,34.16955,-107.78594,30,29,0.48,51457,1
61709,637842,-6.66797,-4.26953,5.26953,0.61230469,0.09301758,0.34307861,-0.70617676,-26.38162,33.47233,-106.20773,30,29,0.48,51457,1
61710,637855,-6.90234,-3.80859,5.57812,0.62109375,0.09094238,0.33148193,-0.7043457,-24.86827,32.67455,-104.58405,30,29,0.48,51457,1
61711,637866,-7.24219,-3.38672,5.76953,0.62939453,0.08947754,0.3192749,-0.70281982,-23.3103,31.84708,-103.04533,30,29,0.48,51457,1
61712,637871,-7.24219,-3.38672,5.76953,0.63800049,0.08862305,0.30505371,-0.70141602,-21.52916,30.90409,-101.43801,30,29,0.48,51457,1
61713,637882,-7.625,-2.58203,5.96094,0.64556885,0.08831787,0.29138184,-0.70037842,-19.85326,29.99535,-100.03255,30,29,0.48,51457,1
61714,637891,-8.35156,-2.04688,6,0.65234375,0.08831787,0.27807617,-0.69952393,-18.26251,29.10144,-98.77566,30,29,0.48,51457,1
61715,637900,-8.57812,-2.39062,6.26562,0.65936279,0.08880615,0.26281738,-0.69873047,-16.47275,28.08065,-97.46703,30,29,0.48,51457,1
61716,637910,-8.77734,-2.62109,6.30469,0.66577148,0.08966064,0.24768066,-0.69812012,-14.73068,27.06375,-96.28106,30,29,0.48,51457,1
61717,637921,-8.89453,-2.19922,6.53516,0.67150879,0.09100342,0.23260498,-0.69763184,-13.0164,26.06343,-95.21111,30,29,0.48,51457,1
61718,637930,-8.77344,-1.85547,7.03125,0.67626953,0.09320068,0.21661377,-0.69787598,-11.21871,25.02871,-94.29931,30,29,0.48,51457,1
61719,637940,-8.55078,-2.04688,7.26172,0.68078613,0.09594727,0.19952393,-0.69824219,-9.31765,23.93148,-93.42932,30,29,0.48,51457,1
61720,637950,-8.55078,-2.04688,7.26172,0.68438721,0.09899902,0.1831665,-0.6987915,-7.51473,22.89571,-92.71717,30,29,0.48,51457,1
61721,637963,-7.78125,0.13672,10.51562,0.68762207,0.10211182,0.16656494,-0.69927979,-5.72028,21.83171,-92.06726,30,29,0.48,51457,1
61722,637970,-7.97266,0.94141,10.75,0.6907959,0.1050415,0.14862061,-0.69976807,-3.85227,20.63074,-91.44076,30,29,0.48,51457,1
61723,637980,-8.04688,1.63281,10.67578,0.69317627,0.10650635,0.13415527,-0.70013428,-2.44522,19.57962,-90.99422,30,29,0.48,51457,1
61724,637990,-7.78125,2.58984,10.78906,0.69543457,0.10516357,0.12127686,-0.70043945,-1.42687,18.42106,-90.64224,30,29,0.48,51457,1
61725,638001,-7.39453,4.88672,12.08594,0.69799805,0.09918213,0.11340332,-0.70007324,-1.21963,17.28829,-90.35551,30,29,0.48,51457,1
61726,638010,-6.85938,4.27344,13.51172,0.70019531,0.09075928,0.10961914,-0.699646,-1.5695,16.29002,-90.17968,30,29,0.48,51457,1
61727,638020,-6.05469,3.16406,14.66016,0.70233154,0.07885742,0.10736084,-0.69927979,-2.33816,15.1348,-90.06116,30,29,0.48,51457,1
61728,638030,-5.44141,-0.12891,13.92969,0.70410156,0.06463623,0.1048584,-0.69934082,-3.28422,13.77237,-90.00802,30,29,0.48,51457,1
61729,638040,-4.63672,-4.03906,12.70703,0.70507812,0.05072021,0.10064697,-0.70007324,-4.07318,12.29566,-90.03077,30,29,0.48,51457,1
61730,638055,-4.10156,-5.33984,12.92969,0.7053833,0.03863525,0.09472656,-0.70141602,-4.57703,10.82634,-90.11079,30,29,0.48,51457,1
61731,638060,-4.10156,-5.33984,12.92969,0.70568848,0.02813721,0.08728027,-0.70257568,-4.82131,9.36478,-90.14183,30,29,0.48,51457,1
61732,638070,-2.53125,-3.38672,12.08594,0.70513916,0.01959229,0.07818604,-0.70446777,-4.7797,7.92457,-90.27668,30,29,0.48,51457,1
61733,638080,-1.26562,-0.55078,13.19531,0.70404053,0.01245117,0.06829834,-0.70678711,-4.5613,6.53243,-90.48353,30,29,0.48,51457,1
61734,638090,-1.03906,0.82812,13.69531,0.70257568,0.00537109,0.0569458,-0.70928955,-4.21616,5.02779,-90.7301,30,29,0.48,51457,1
61735,638100,-0.73047,1.51562,13.16406,0.70092773,-0.00170898,0.04644775,-0.71173096,-3.93622,3.5936,-90.99985,30,29,0.48,51457,1
61736,638110,-0.61719,1.59375,12.66406,0.69897461,-0.01031494,0.03692627,-0.71411133,-3.85347,2.11408,-91.29856,30,29,0.48,51457,1
61737,638119,-0.80859,0.90234,11.35938,0.69665527,-0.02044678,0.02923584,-0.71655273,-4.03627,0.655,-91.63638,30,29,0.48,51457,1
61738,638135,-1.15234,0.63672,12.47266,0.69396973,-0.03167725,0.02331543,-0.71893311,-4.4447,-0.75559,-91.99509,30,29,0.48,51457,1
61739,638140,-1.15234,0.63672,12.47266,0.69152832,-0.04510498,0.01782227,-0.72070312,-5.05694,-2.31345,-92.2648,30,29,0.48,51457,1
61740,638152,-0.57812,-1.05078,11.58984,0.68786621,-0.0581665,0.01330566,-0.72338867,-5.70961,-3.77556,-92.6954,30,29,0.48,51457,1
61741,638160,-0.65625,-1.01172,11.94141,0.68377686,-0.07104492,0.0088501,-0.72613525,-6.34271,-5.22563,-93.15193,30,29,0.48,51457,1
61742,638169,0.37891,-0.66797,14.3125,0.67919922,-0.0838623,0.00396729,-0.72912598,-6.92281,-6.71351,-93.65416,30,29,0.48,51457,1
61743,638180,0.64844,-0.32031,14.61719,0.67443848,-0.09570312,-0.00115967,-0.73205566,-7.39453,-8.14587,-94.16437,30,29,0.48,51457,1
61744,638191,1.26172,0.40625,12.00781,0.66949463,-0.10699463,-0.00628662,-0.73504639,-7.81073,-9.53843,-94.6916,30,29,0.48,51457,1
61745,638200,0.80078,3.46875,11.01562,0.6640625,-0.11865234,-0.01092529,-0.73809814,-8.28386,-10.93357,-95.25078,30,29,0.48,51457,1
61746,638209,0.26562,2.16797,9.10547,0.6585083,-0.13037109,-0.01452637,-0.74108887,-8.83949,-12.26029,-95.80219,30,29,0.48,51457,1
61747,638220,0.03516,2.55078,9.21094,0.65246582,-0.14294434,-0.01708984,-0.74401855,-9.54046,-13.59206,-96.36226,30,29,0.48,51457,1
61748,638230,0.03516,2.55078,9.21094,0.6463623,-0.15539551,-0.01849365,-0.74676514,-10.32598,-14.83359,-96.89659,30,29,0.48,51457,1
61749,638243,-0.5,2.05469,5.46484,0.63970947,-0.16882324,-0.0189209,-0.74957275,-11.26226,-16.09991,-97.44512,30,29,0.48,51457,1
61750,638250,-0.19531,2.78125,5.46094,0.63238525,-0.1831665,-0.01849365,-0.75244141,-12.33421,-17.40013,-98.01506,30,29,0.48,51457,1
61751,638260,0.37891,2.55078,5.30469,0.62506104,-0.19683838,-0.01776123,-0.75512695,-13.37828,-18.63187,-98.56271,30,29,0.48,51457,1
61752,638271,1.98828,1.89844,6.07031,0.61743164,-0.21008301,-0.01696777,-0.75787354,-14.3856,-19.83909,-99.13268,30,29,0.48,51457,1
61753,638279,2.21875,2.12891,6.26562,0.60968018,-0.22259521,-0.01617432,-0.76062012,-15.32874,-20.99709,-99.71461,30,29,0.48,51457,1
61754,638289,2.29688,1.9375,6.15234,0.60198975,-0.23382568,-0.015625,-0.76330566,-16.14464,-22.07336,-100.30791,30,29,0.48,51457,1
61755,638300,2.5625,0.78906,6.00391,0.59399414,-0.24462891,-0.01538086,-0.76623535,-16.88342,-23.15057,-100.95127,30,29,0.48,51457,1
61756,638315,3.90234,-1.35547,5.23438,0.58630371,-0.25396729,-0.01550293,-0.769104,-17.46881,-24.13124,-101.6001,30,29,0.48,51457,1
61757,638320,3.90234,-1.35547,5.23438,0.578125,-0.26342773,-0.01629639,-0.77209473,-17.98588,-25.18973,-102.29985,30,29,0.48,51457,1
61758,638329,3.94141,-1.43359,4.73438,0.56964111,-0.2713623,-0.01757812,-0.77563477,-18.30405,-26.16527,-103.12326,30,29,0.48,51457,1
61759,638339,3.98047,-1.625,4.35547,0.5612793,-0.27807617,-0.01953125,-0.77923584,-18.44754,-27.0856,-103.99006,30,29,0.48,51457,1
61760,638351,4.32422,0.44531,3.92969,0.55255127,-0.28460693,-0.02185059,-0.78308105,-18.51386,-28.02678,-104.92683,30,29,0.48,51457,1
61761,638359,4.25,0.82812,6.07031,0.54284668,-0.29162598,-0.02380371,-0.78723145,-18.61336,-29.01143,-105.96686,30,29,0.48,51457,1
61762,638369,3.90234,0.75,4.07812,0.53155518,-0.29980469,-0.02471924,-0.79180908,-18.84782,-30.06964,-107.1464,30,29,0.48,51457,1
61763,638379,2.94922,0.51953,1.13281,0.51922607,-0.309021,-0.02386475,-0.79644775,-19.29877,-31.13302,-108.37363,30,29,0.48,51457,1
61764,638394,3.32812,-0.66797,3.97266,0.50640869,-0.31860352,-0.02172852,-0.80096436,-19.88261,-32.16782,-109.60778,30,29,0.48,51457,1
61765,638402,3.90234,-1.35547,3.31641,0.49255371,-0.32843018,-0.01916504,-0.80566406,-20.4827,-33.23832,-110.94621,30,29,0.48,51457,1
61766,638410,4.55469,-1.35547,3.20312,0.47717285,-0.33850098,-0.01696777,-0.81085205,-20.98951,-34.41032,-112.48191,30,29,0.48,51457,1
61767,638419,5.24219,-1.58594,3.81641,0.46405029,-0.34625244,-0.01574707,-0.81518555,-21.26573,-35.38936,-113.84261,30,29,0.48,51457,1
61768,638430,6.27734,-1.125,5.30859,0.4510498,-0.35314941,-0.01519775,-0.81951904,-21.38017,-36.33701,-115.25475,30,29,0.48,51457,1
61769,638438,6.62891,-0.82031,6.15234,0.43768311,-0.359375,-0.01538086,-0.82403564,-21.31668,-37.28259,-116.78503,30,29,0.48,51457,1
61770,638449,7.11719,-0.70703,6.45703,0.42407227,-0.36486816,-0.01635742,-0.82873535,-21.06013,-38.21466,-118.43259,30,29,0.48,51457,1
61771,638459,7.69922,-0.70703,6.53516,0.41149902,-0.36914062,-0.01818848,-0.83312988,-20.62028,-39.05255,-120.04629,30,29,0.48,51457,1
61772,638474,8.61719,-0.39844,6,0.40008545,-0.37219238,-0.02105713,-0.83721924,-19.98317,-39.79767,-121.61845,30,29,0.48,51457,1
61773,638479,8.61719,-0.39844,6,0.38873291,-0.37445068,-0.02526855,-0.84143066,-19.09123,-40.52752,-123.30188,30,29,0.48,51457,1
61774,638488,8.07812,-1.16406,6.53516,0.3782959,-0.37567139,-0.03057861,-0.84545898,-17.99507,-41.17667,-124.98045,30,29,0.48,51457,1
61775,638499,7.57812,-0.58984,5.88281,0.36810303,-0.37609863,-0.03741455,-0.8494873,-16.62829,-41.80067,-126.75539,30,29,0.48,51457,1
61776,638509,6.50781,0.44531,5.30859,0.35931396,-0.37567139,-0.04443359,-0.85308838,-15.21729,-42.29233,-128.40359,30,29,0.48,51457,1
61777,638519,6.27734,1.36328,4.3125,0.35009766,-0.37493896,-0.05230713,-0.85681152,-13.62361,-42.77513,-130.19264,30,29,0.48,51457,1
61778,638529,6.20703,2.05469,4.12109,0.34069824,-0.37426758,-0.0604248,-0.86035156,-11.96874,-43.2491,-132.03371,30,29,0.48,51457,1
61779,638539,6.08594,2.32031,4.46484,0.33129883,-0.37353516,-0.0680542,-0.86376953,-10.34675,-43.66001,-133.8772,30,29,0.48,51457,1
61780,638555,6.01172,2.32031,4.65625,0.32208252,-0.37280273,-0.07495117,-0.86694336,-8.81284,-44.00563,-135.6714,30,29,0.48,51458,1
61781,638560,6.01172,2.32031,4.65625,0.31201172,-0.37237549,-0.08197021,-0.87017822,-7.20982,-44.36739,-137.60521,30,29,0.48,51458,1
61782,638568,6.24609,2.05469,4.23828,0.30163574,-0.37176514,-0.08880615,-0.87341309,-5.58011,-44.67079,-139.60089,30,29,0.48,51458,1
61783,638579,6.08594,2.93359,4.73438,0.29125977,-0.37121582,-0.09533691,-0.87652588,-3.97778,-44.9332,-141.59238,30,29,0.48,51458,1
61784,638590,6.47266,3.20312,5.38672,0.28131104,-0.37091064,-0.10083008,-0.87927246,-2.54939,-45.15313,-143.45717,30,29,0.48,51458,1
61785,638599,6.73438,3.31641,5.42578,0.27020264,-0.37072754,-0.10632324,-0.88220215,-1.03937,-45.36092,-145.50786,30,29,0.48,51458,1
61786,638609,6.89453,3.625,5.42578,0.25921631,-0.37060547,-0.11114502,-0.88494873,0.37465,-45.5232,-147.50481,30,29,0.48,51458,1
61787,638619,7.19922,3.54688,5.26953,0.24810791,-0.37060547,-0.11523438,-0.88757324,1.69346,-45.64981,-149.47768,30,29,0.48,51458,1
61788,638638,7.92188,4.39062,5.38672,0.23724365,-0.37078857,-0.11871338,-0.89001465,2.90646,-45.75406,-151.375,30,29,0.48,51458,1
61789,638642,7.92188,4.39062,5.38672,0.22589111,-0.37109375,-0.121521,-0.89245605,4.0533,-45.83064,-153.3062,30,29,0.48,51458,1
61790,638650,8.46484,4.65625,5.5,0.21398926,-0.37127686,-0.12390137,-0.8949585,5.18011,-45.85872,-155.298,30,29,0.48,51458,1
61791,638659,9.34766,4.23828,4.62109,0.20239258,-0.37158203,-0.12536621,-0.89733887,6.14793,-45.85982,-157.18234,30,29,0.48,51458,1
61792,638669,9.6875,3.20312,5.42578,0.1895752,-0.37188721,-0.12609863,-0.89990234,7.08475,-45.82055,-159.20515,30,29,0.48,51458,1
61793,638679,9.57422,3.01172,5.80859,0.17712402,-0.37207031,-0.12640381,-0.90234375,7.93291,-45.74497,-161.13976,30,29,0.48,51458,1
61794,638689,9.45703,2.62891,6.19141,0.16479492,-0.37213135,-0.12628174,-0.90466309,8.70602,-45.63723,-163.02101,30,29,0.48,51458,1
61795,638699,9.07422,2.24609,6.11328,0.15240479,-0.37188721,-0.12585449,-0.90698242,9.43465,-45.47655,-164.88422,30,29,0.48,51458,1
61796,638718,8.65234,2.47266,6.57422,0.13989258,-0.37139893,-0.12524414,-0.90930176,10.13649,-45.27175,-166.74365,30,29,0.48,51458,1
61797,638722,8.65234,2.47266,6.57422,0.12762451,-0.37078857,-0.12438965,-0.91143799,10.7766,-45.04624,-168.53777,30,29,0.48,51458,1
61798,638730,8.80859,3.20312,7.26172,0.11486816,-0.36950684,-0.12365723,-0.91375732,11.45481,-44.72512,-170.39555,30,29,0.48,51458,1
61799,638739,9.07422,2.85938,7.30078,0.10345459,-0.36791992,-0.12310791,-0.91583252,12.06304,-44.37867,-172.04553,30,29,0.48,51458,1
61800,638750,8.80469,2.32031,6.95703,0.09173584,-0.36584473,-0.12280273,-0.91796875,12.70758,-43.96313,-173.73347,30,29,0.48,51458,1
61801,638758,8.42578,1.89844,7.1875,0.08007812,-0.36322021,-0.12280273,-0.92010498,13.37072,-43.47663,-175.40364,30,29,0.48,51458,1
61802,638768,8.03906,0.98047,7.26172,0.06848145,-0.36010742,-0.12341309,-0.92218018,14.09298,-42.92663,-177.07066,30,29,0.48,51458,1
61803,638780,7.19531,1.40234,6.80469,0.05761719,-0.35668945,-0.12469482,-0.92407227,14.84381,-42.34391,-178.64095,30,29,0.48,51458,1
61804,638793,6.89453,1.51562,6.87891,0.04779053,-0.35302734,-0.12658691,-0.92578125,15.59819,-41.73963,179.93166,30,29,0.48,51458,1
61805,638803,6.81641,1.44141,7.21875,0.03796387,-0.34893799,-0.12927246,-0.9274292,16.43419,-41.07321,178.49515,30,29,0.48,51458,1
61806,638810,6.81641,2.05469,7.45312,0.02838135,-0.34442139,-0.13293457,-0.92895508,17.361,-40.34664,177.07895,30,29,0.48,51458,1
61807,638818,7.00781,1.97656,7.57422,0.01934814,-0.33966064,-0.1373291,-0.93023682,18.33089,-39.58928,175.73608,30,29,0.48,51458,1
61808,638828,8,2.05469,7.33984,0.00958252,-0.33422852,-0.1428833,-0.93157959,19.44778,-38.7133,174.28853,30,29,0.48,51458,1
61809,638838,8.61719,2.35938,7.76172,0.0012207,-0.32897949,-0.14874268,-0.93255615,20.51372,-37.87479,173.04457,30,29,0.48,51458,1
61810,638848,8.96094,2.55078,8.48828,0.00665283,0.32336426,0.15551758,0.93341064,21.64201,-36.98199,171.86839,30,29,0.48,51458,1
61811,638860,9.26562,1.21094,8.25781,0.01409912,0.31744385,0.16308594,0.934021,22.82211,-36.04513,170.7561,30,29,0.48,51458,1
61812,638873,9.04297,1.28516,8.02734,0.02093506,0.31140137,0.17144775,0.93444824,24.0481,-35.08563,169.72908,30,29,0.48,51458,1
61813,638884,8.6875,1.05859,8.06641,0.02746582,0.30493164,0.18084717,0.93463135,25.35872,-34.06097,168.74892,30,29,0.48,51458,1
61814,638889,8.6875,1.05859,8.06641,0.03540039,0.29785156,0.1920166,0.93444824,26.90174,-32.8909,167.58435,30,29,0.48,51458,1
61815,638899,8.38672,2.08984,8.64453,0.04095459,0.29101562,0.20324707,0.93395996,28.34462,-31.80084,166.74928,30,29,0.48,51458,1
61816,638910,8.69141,2.4375,8.25781,0.0456543,0.28442383,0.21447754,0.93328857,29.73915,-30.75117,166.04716,30,29,0.48,51458,1
61817,638918,8.88672,2.93359,7.99219,0.05041504,0.27722168,0.22741699,0.93212891,31.31492,-29.59684,165.33858,30,29,0.48,51458,1
61818,638928,9.07422,3.58594,8.44922,0.05535889,0.26953125,0.24182129,0.93048096,33.04213,-28.3477,164.62228,30,29,0.48,51458,1
61819,638939,9.6875,4.65625,10.40234,0.05938721,0.2623291,0.25585938,0.92852783,34.69209,-27.17973,164.04488,30,29,0.48,51458,1
61820,638955,9.45703,4.65625,10.67578,0.06280518,0.25476074,0.27099609,0.92614746,36.43408,-25.96593,163.56262,30,29,0.48,51458,1
61821,638960,9.45703,4.65625,10.67578,0.06671143,0.24731445,0.2868042,0.9230957,38.26499,-24.72939,163.03494,30,29,0.48,51458,1
61822,638970,8.19531,4.96484,10.75,0.06890869,0.23950195,0.30340576,0.91967773,40.13176,-23.49855,162.74095,30,29,0.48,51458,1
61823,638978,7.58203,4.04688,11.13281,0.0703125,0.23168945,0.32019043,0.91589355,41.99915,-22.29506,162.56886,30,29,0.48,51458,1
61824,638989,7.35156,3.92969,10.82031,0.07098389,0.22393799,0.33758545,0.91149902,43.93378,-21.11979,162.49368,30,29,0.48,51458,1
61825,638998,7.88672,4.12109,10.63672,0.07092285,0.21569824,0.35675049,0.90618896,46.06647,-19.89646,162.52031,30,29,0.48,51458,1
61826,639008,8.11719,4.27344,10.21094,0.07012939,0.20788574,0.37506104,0.90063477,48.10706,-18.77601,162.65395,30,29,0.48,51458,1
61827,639019,7.39062,7.99219,8.72266,0.06896973,0.20037842,0.39215088,0.8951416,50.00878,-17.73714,162.8636,30,29,0.48,51458,1
61828,639032,7.00781,9.98828,8.56641,0.06799316,0.19232178,0.40826416,0.88977051,51.78356,-16.66237,163.12863,30,29,0.48,51458,1
61829,639042,6.81641,11.74219,8.83203,0.06768799,0.18414307,0.42034912,0.88586426,53.05964,-15.62635,163.42352,30,29,0.48,51458,1
61830,639050,6.81641,13.47266,8.79688,0.06994629,0.17547607,0.42352295,0.88598633,53.20415,-14.57719,163.64203,30,29,0.48,51458,1
61831,639059,7.50391,18.14453,9.48438,0.07336426,0.16766357,0.41955566,0.88909912,52.4814,-13.68443,163.79581,30,29,0.48,51458,1
61832,639067,7.62109,19.48828,11.28516,0.07781982,0.15808105,0.41033936,0.89477539,51.05731,-12.65141,163.99763,31,29,0.481,51458,1
61833,639078,7.88672,17.76172,12.28125,0.08227539,0.14758301,0.39849854,0.90148926,49.30053,-11.56672,164.24835,31,29,0.481,51458,1
61834,639088,8.53906,11.97266,12.125,0.08648682,0.13519287,0.38421631,0.90917969,47.21782,-10.3332,164.60574,31,29,0.481,51458,1
61835,639099,8.96094,6.30469,9.10156,0.09051514,0.12322998,0.36871338,0.91687012,45.02972,-9.16202,164.91931,31,29,0.481,51458,1
61836,639112,7.54297,8.41016,9.21094,0.09484863,0.11065674,0.35113525,0.92492676,42.61026,-7.93709,165.19032,31,29,0.481,51458,1
61837,639122,6.16406,10.4375,10.09766,0.09857178,0.09771729,0.33197021,0.93304443,40.02586,-6.71314,165.49115,31,29,0.481,51458,1
61838,639130,5.16797,11.70312,9.44531,0.10198975,0.08404541,0.30987549,0.94152832,37.11456,-5.45463,165.80286,31,29,0.481,51458,1
61839,639139,4.9375,9.87109,6.99609,0.10571289,0.07049561,0.2857666,0.9498291,34.00642,-4.21506,166.00914,31,29,0.481,51458,1
61840,639147,4.74609,8.10547,7.10938,0.1081543,0.05560303,0.25872803,0.95825195,30.56691,-2.90038,166.32828,31,29,0.481,51458,1
61841,639157,4.21094,8.22266,8.06641,0.10961914,0.0411377,0.23193359,0.96563721,27.20355,-1.63892,166.65044,31,29,0.481,51458,1
61842,639168,4.21094,8.22266,8.06641,0.11022949,0.02716064,0.2053833,0.97210693,23.90886,-0.43127,166.97015,31,29,0.481,51458,1
61843,639181,2.5625,7.95312,6.95703,0.11004639,0.0123291,0.17572021,0.97821045,20.27465,0.83387,167.3118,31,29,0.481,51458,1
61844,639188,2.25781,6.65234,3.73828,0.10955811,-0.00286865,0.14343262,0.98358154,16.36263,2.12449,167.59387,31,29,0.481,51458,1
61845,639198,1.41406,7.26172,3.85156,0.10821533,-0.01794434,0.10845947,0.98803711,12.16946,3.37854,167.85938,31,29,0.481,51458,1
61846,639208,1.83594,6.11328,7.80078,0.10546875,-0.03289795,0.07067871,0.99133301,7.67943,4.59656,168.16286,31,29,0.481,51458,1
61847,639218,2.10547,3.73438,2.47266,0.10162354,-0.04742432,0.03137207,0.9932251,3.03498,5.77238,168.46907,31,29,0.481,51458,1
61848,639234,2.25781,1.32422,2.08984,0.09680176,-0.06109619,-0.00762939,0.9934082,-1.55762,6.88675,168.77515,31,29,0.481,51458,1
61849,639239,2.25781,1.32422,2.08984,0.09069824,-0.07550049,-0.05010986,0.99176025,-6.55876,8.08623,169.08536,31,29,0.481,51458,1
61850,639247,1.94922,0.44531,3.69531,0.08410645,-0.08795166,-0.08770752,0.9887085,-10.99074,9.15792,169.39253,31,29,0.481,51458,1
61851,639259,1.98828,-1.125,3.39062,0.07635498,-0.10015869,-0.12487793,0.98413086,-15.38694,10.25758,169.73772,31,29,0.481,51458,1
61852,639267,2.10547,-2.16016,3.20312,0.06707764,-0.11242676,-0.1619873,0.97808838,-19.79551,11.43102,170.15256,31,29,0.481,51458,1
61853,639277,1.98828,-2.66016,4.07812,0.05780029,-0.1229248,-0.19372559,0.97161865,-23.58715,12.50191,170.57086,31,29,0.481,51458,1
61854,639288,1.98828,-2.66016,4.07812,0.04833984,-0.13220215,-0.22161865,0.96490479,-26.93771,13.51535,171.01279,31,29,0.481,51458,1
61855,639301,1.52734,-3.38672,4.15625,0.0380249,-0.14105225,-0.24798584,0.95770264,-30.11972,14.55473,171.51674,31,29,0.481,51458,1
61856,639308,1.375,-4.72656,3.24219,0.02703857,-0.14929199,-0.27227783,0.95019531,-33.06582,15.60371,172.08203,31,29,0.481,51458,1
61857,639318,0.99219,-4.91797,3.625,0.01538086,-0.15704346,-0.2946167,0.94250488,-35.78695,16.67614,172.71169,31,29,0.481,51458,1
61858,639327,0.64844,-5.03516,5.64844,0.00457764,-0.16357422,-0.31219482,0.93585205,-37.93394,17.65504,173.32909,31,29,0.481,51458,1
61859,639337,-0.07812,-6.17969,5.30859,0.00769043,0.17047119,0.32849121,-0.92895508,-39.92847,18.77048,174.0766,31,29,0.481,51458,1
61860,639353,-0.15625,-4.76562,3.43359,0.01806641,0.17596436,0.33911133,-0.9239502,-41.21991,19.72023,174.76067,31,29,0.481,51458,1
61861,639358,-0.15625,-4.76562,3.43359,0.0302124,0.18212891,0.34790039,-0.91918945,-42.26577,20.84456,175.63173,31,29,0.481,51458,1
61862,639370,-1.23047,-4,5.76562,0.0413208,0.18774414,0.35308838,-0.91564941,-42.85532,21.89954,176.48364,31,29,0.481,51458,1
61863,639378,-1.45703,-3.08203,5.08203,0.05224609,0.19311523,0.35577393,-0.91290283,-43.11418,22.94022,177.38477,31,29,0.481,51458,1
61864,639387,-1.72656,-2.3125,4.39453,0.0625,0.19799805,0.35693359,-0.9107666,-43.16584,23.90829,178.27632,31,29,0.481,51458,1
61865,639397,-2.07031,-2.08594,4.69531,0.07440186,0.20336914,0.35754395,-0.90844727,-43.11056,25.0052,179.35219,31,29,0.481,51458,1
61866,639409,-2.57031,-0.47656,5.03906,0.08630371,0.20831299,0.35821533,-0.90600586,-43.04016,26.05877,-179.54451,32,31,0.515,51458,1
61867,639417,-2.72266,-0.24609,4.96094,0.0993042,0.21307373,0.35974121,-0.9029541,-43.04042,27.14465,-178.32365,32,31,0.515,51458,1
61868,639433,-2.91406,-0.20703,4.8125,0.11138916,0.21673584,0.36218262,-0.8996582,-43.15158,28.07907,-177.1785,32,31,0.515,51458,1
61869,639438,-2.91406,-0.20703,4.8125,0.12640381,0.22058105,0.36682129,-0.89483643,-43.47905,29.17904,-175.7701,32,31,0.515,51458,1
61870,639449,-3.98828,-1.31641,4.73828,0.13970947,0.22296143,0.37219238,-0.89007568,-43.91134,30.05999,-174.51457,32,31,0.515,51458,1
61871,639457,-4.37109,-2.08594,4.81641,0.15460205,0.22497559,0.37884521,-0.88427734,-44.46752,30.99942,-173.10109,32,31,0.515,51458,1
61872,639467,-4.67188,-2.85156,4.39062,0.17047119,0.22662354,0.38598633,-0.87786865,-45.05038,31.96898,-171.57126,32,31,0.515,51458,1
61873,639477,-5.01562,-3.15625,4.12109,0.18554688,0.22772217,0.39239502,-0.87164307,-45.53983,32.86007,-170.07756,32,31,0.515,51458,1
61874,639488,-5.71484,-3.38672,4.27344,0.20025635,0.22839355,0.39831543,-0.86547852,-45.95728,33.70272,-168.58192,32,31,0.515,51458,1
61875,639497,-6.32031,-2.8125,4.58203,0.21520996,0.22875977,0.40380859,-0.85925293,-46.2909,34.53566,-167.01598,32,31,0.515,51459,1
61876,639507,-7.36328,-2.00781,5.00391,0.23065186,0.22875977,0.40899658,-0.85272217,-46.55374,35.36905,-165.34889,32,31,0.515,51459,1
61877,639517,-8.39062,-1.92969,5.34766,0.2454834,0.22845459,0.41351318,-0.84649658,-46.71991,36.14221,-163.69934,32,31,0.515,51459,1
61878,639533,-9.77344,-1.81641,4.84766,0.25952148,0.22784424,0.4173584,-0.84057617,-46.80071,36.84521,-162.08948,32,31,0.515,51459,1
61879,639538,-9.77344,-1.81641,4.84766,0.27435303,0.22723389,0.4208374,-0.83428955,-46.78704,37.59271,-160.34557,32,31,0.515,51459,1
61880,639547,-10.11719,-1.05078,3.54688,0.28869629,0.22625732,0.4241333,-0.82800293,-46.74867,38.28437,-158.62012,32,31,0.515,51459,1
61881,639557,-9.58203,-0.78125,3.16406,0.30377197,0.22497559,0.42767334,-0.82110596,-46.70351,38.9971,-156.77917,32,31,0.515,51459,1
61882,639568,-8.27734,-1.24219,3.77734,0.31738281,0.22363281,0.43078613,-0.81469727,-46.63559,39.62806,-155.0863,32,31,0.515,51459,1
61883,639577,-7.58984,-0.05469,3.96875,0.33197021,0.22198486,0.43395996,-0.80761719,-46.52505,40.28949,-153.23328,32,31,0.515,51459,1
61884,639587,-7.20703,-0.78125,3.77734,0.34643555,0.21990967,0.43731689,-0.80023193,-46.4348,40.91699,-151.36623,32,31,0.515,51459,1
61885,639597,-6.90234,-1.31641,3.89062,0.3605957,0.21765137,0.44042969,-0.79284668,-46.30585,41.51163,-149.49786,32,31,0.515,51459,1
61886,639613,-7.01172,-1.43359,4.96484,0.37402344,0.21520996,0.44311523,-0.7857666,-46.13083,42.04298,-147.67844,32,31,0.515,51459,1
61887,639618,-7.01172,-1.43359,4.96484,0.38842773,0.21240234,0.44580078,-0.7779541,-45.90179,42.59726,-145.68346,32,31,0.515,51459,1
61888,639626,-7.16797,-1.39453,5.34766,0.40234375,0.20910645,0.44830322,-0.77032471,-45.65632,43.07193,-143.70695,32,31,0.515,51459,1
61889,639637,-7.36328,-1.85547,5.42578,0.41595459,0.20550537,0.45068359,-0.76263428,-45.40054,43.50314,-141.73338,32,31,0.515,51459,1
61890,639648,-7.58594,-1.89453,5.65234,0.4286499,0.20184326,0.45269775,-0.75537109,-45.12471,43.87039,-139.85056,32,31,0.515,51459,1
61891,639657,-7.58594,-1.54688,6.30469,0.44219971,0.1975708,0.45446777,-0.74755859,-44.7706,44.21483,-137.78508,32,31,0.515,51459,1
61892,639666,-7.89062,-2.42969,6.34375,0.45495605,0.19329834,0.45581055,-0.74017334,-44.38417,44.50068,-135.79489,32,31,0.515,51459,1
61893,639677,-8.125,-2.62109,6.26562,0.46716309,0.18914795,0.45648193,-0.73321533,-43.91509,44.73883,-133.83554,32,31,0.515,51459,1
61894,639693,-8.69922,-1.96875,5.84375,0.47851562,0.18505859,0.45666504,-0.72680664,-43.41352,44.9133,-131.9671,32,31,0.515,51459,1
61895,639698,-8.69922,-1.96875,5.84375,0.49053955,0.18048096,0.456604,-0.71990967,-42.84985,45.06052,-129.95065,32,31,0.515,51459,1
61896,639706,-8.89453,-2.3125,6.23047,0.5022583,0.17578125,0.45605469,-0.71331787,-42.23285,45.14639,-127.94166,32,31,0.515,51459,1
61897,639717,-9,-2.35156,5.61719,0.51318359,0.17126465,0.45501709,-0.70727539,-41.58622,45.17798,-126.02707,32,31,0.515,51459,1
61898,639728,-9.50391,-2.58203,4.96484,0.52355957,0.16668701,0.45367432,-0.70159912,-40.93503,45.15147,-124.17811,32,31,0.515,51459,1
61899,639736,-9.50391,-2.62109,4.35156,0.53497314,0.16137695,0.45184326,-0.69543457,-40.18608,45.06275,-122.11892,32,31,0.515,51459,1
61900,639746,-9.19531,-2.88672,4.3125,0.54522705,0.15649414,0.449646,-0.68994141,-39.4507,44.93366,-120.2328,32,31,0.515,51459,1
61901,639757,-9.12109,-3.27344,3.69922,0.55535889,0.15161133,0.44689941,-0.68475342,-38.65665,44.74887,-118.34531,32,31,0.515,51459,1
61902,639776,-9.19531,-3.08203,3.46875,0.56530762,0.14672852,0.44354248,-0.67980957,-37.80604,44.50646,-116.46071,32,31,0.515,51459,1
61903,639780,-9.19531,-3.08203,3.46875,0.57434082,0.14233398,0.43994141,-0.67553711,-36.97158,44.23788,-114.73382,32,31,0.515,51459,1
61904,639787,-9.19922,-2.85156,3.89062,0.58380127,0.13751221,0.43560791,-0.67120361,-36.05569,43.88498,-112.9069,32,31,0.515,51459,1
61905,639797,-8.93359,-3.08203,4.3125,0.59362793,0.13238525,0.43048096,-0.66687012,-35.05574,43.44778,-110.99553,32,31,0.515,51459,1
61906,639808,-8.08984,-3.00391,4.77344,0.60211182,0.12792969,0.42547607,-0.66339111,-34.14452,43.00702,-109.34253,32,31,0.515,51459,1
61907,639816,-7.55078,-3.23438,4.8125,0.61083984,0.12329102,0.41955566,-0.66003418,-33.14223,42.47873,-107.62773,32,31,0.515,51459,1
61908,639826,-7.20703,-3.5,5.07812,0.61981201,0.11853027,0.41278076,-0.65679932,-32.06074,41.86679,-105.86337,32,31,0.515,51459,1
61909,639836,-6.98047,-3.38672,5.57812,0.62811279,0.11419678,0.40563965,-0.6541748,-30.98531,41.2197,-104.23096,32,31,0.515,51459,1
61910,639852,-6.70312,-3.38672,5.96094,0.63580322,0.11022949,0.39813232,-0.65203857,-29.91532,40.53983,-102.71424,32,31,0.515,51459,1
61911,639857,-6.70312,-3.38672,5.96094,0.64428711,0.10620117,0.38867188,-0.65002441,-28.61717,39.71064,-101.03262,32,31,0.515,51459,1
61912,639866,-7.28516,-3.30859,5.80859,0.65093994,0.10327148,0.38024902,-0.64886475,-27.50559,38.98046,-99.71867,32,31,0.515,51459,1
61913,639876,-7.51172,-3.42578,5.84375,0.65826416,0.10046387,0.36962891,-0.64801025,-26.14362,38.08738,-98.26509,32,31,0.515,51459,1
61914,639886,-8.3125,-3.5,6.72656,0.66546631,0.09832764,0.35772705,-0.64770508,-24.64759,37.11974,-96.84081,32,31,0.515,51459,1
61915,639896,-8.27344,-4.03906,6.23047,0.67163086,0.09710693,0.34606934,-0.64788818,-23.20753,36.20432,-95.61861,32,31,0.515,51459,1
61916,639906,-7.89062,-3.57812,6,0.6776123,0.09661865,0.33306885,-0.64849854,-21.62389,35.21943,-94.42233,32,31,0.515,51459,1
61917,639918,-7.08984,-3.65625,6.15234,0.68328857,0.0970459,0.31890869,-0.64959717,-19.91081,34.1877,-93.28348,32,31,0.515,51459,1
61918,639931,-7.01172,-3.42578,6.45703,0.68823242,0.09838867,0.30450439,-0.65106201,-18.17688,33.18074,-92.27766,32,31,0.515,51459,1
61919,639936,-7.01172,-3.42578,6.45703,0.69311523,0.10083008,0.28826904,-0.6529541,-16.22194,32.09128,-91.27642,32,31,0.515,51459,1
61920,639948,-7.55078,-2.50391,7.41797,0.69744873,0.10406494,0.27148438,-0.65496826,-14.21433,30.99988,-90.36251,32,31,0.515,51459,1
61921,639956,-8.27734,-1.96875,7.53125,0.70147705,0.1081543,0.25378418,-0.65716553,-12.10396,29.87953,-89.50478,32,31,0.515,51459,1
61922,639966,-9.53906,-1.125,8.18359,0.70532227,0.11334229,0.23388672,-0.6595459,-9.75065,28.6479,-88.65353,32,31,0.515,51459,1
61923,639976,-10.26953,-0.93359,8.83203,0.70819092,0.1182251,0.21643066,-0.66156006,-7.70965,27.57875,-87.99528,32,31,0.515,51459,1
61924,639986,-10.6875,-0.89844,9.5625,0.71069336,0.12390137,0.19781494,-0.66363525,-5.54123,26.46375,-87.38172,32,31,0.515,51459,1
61925,639998,-10.5,-0.78125,9.25391,0.71258545,0.12988281,0.17913818,-0.66577148,-3.38938,25.35664,-86.87225,32,31,0.515,51459,1
61926,640011,-10.19141,0.55859,9.71484,0.71380615,0.13580322,0.16137695,-0.66784668,-1.36292,24.31579,-86.48325,32,31,0.515,51459,1
61927,640016,-10.19141,0.55859,9.71484,0.71459961,0.14178467,0.14294434,-0.66998291,0.69189,23.21962,-86.16654,32,31,0.515,51459,1
61928,640027,-9.23438,1.13281,11.58984,0.71478271,0.14715576,0.12548828,-0.67205811,2.5806,22.16012,-85.96544,32,31,0.515,51459,1
61929,640037,-8.23828,2.62891,11.13672,0.71466064,0.15167236,0.1083374,-0.67419434,4.34532,21.06061,-85.85404,32,31,0.515,51459,1
61930,640045,-7.55078,3.24219,11.13672,0.71307373,0.15454102,0.09320068,-0.67749023,5.74842,20.0174,-86.053,32,31,0.515,51459,1
61931,640056,-6.97656,4.12109,11.51953,0.71179199,0.15441895,0.07989502,-0.68054199,6.74282,18.89955,-86.30495,32,31,0.515,51459,1
61932,640066,-7.12891,6.30469,11.90234,0.71148682,0.14923096,0.07183838,-0.68286133,6.8924,17.82131,-86.5659,32,31,0.515,51459,1
61933,640077,-7.43359,9.75391,12.92969,0.7119751,0.13909912,0.06988525,-0.68475342,6.13983,16.85808,-86.85625,32,31,0.515,51459,1
61934,640085,-7.08984,7.95312,14.38281,0.71264648,0.1229248,0.07171631,-0.68695068,4.56868,15.72961,-87.26498,32,31,0.515,51459,1
61935,640096,-6.47656,2.82031,15.23047,0.71282959,0.10479736,0.07470703,-0.68939209,2.74767,14.53741,-87.73431,32,31,0.515,51459,1
61936,640107,-6.47656,2.82031,15.23047,0.71191406,0.08453369,0.07720947,-0.69287109,0.78656,13.12493,-88.35623,32,31,0.515,51459,1
61937,640120,-5.05859,-6.06641,8.52734,0.7097168,0.0645752,0.07849121,-0.69714355,-1.04,11.62128,-89.08175,32,31,0.515,51459,1
61938,640127,-3.91016,-6.22266,8.90625,0.70709229,0.04772949,0.07830811,-0.70117188,-2.46444,10.23405,-89.73898,32,31,0.515,51459,1
61939,640135,-2.45312,-4,10.71094,0.70404053,0.0322876,0.07550049,-0.7053833,-3.54127,8.73496,-90.37972,32,31,0.515,51459,1
61940,640145,-1.49609,-2.19922,11.98047,0.70056152,0.01928711,0.07086182,-0.70983887,-4.25359,7.27669,-91.02434,32,31,0.515,51459,1
61941,640157,-0.80859,-0.05469,9.75,0.69677734,0.00830078,0.06512451,-0.7142334,-4.69767,5.88996,-91.65939,32,31,0.515,51459,1
61942,640165,-0.5,0.09766,8.64062,0.69244385,-0.00323486,0.05804443,-0.71911621,-5.06098,4.34337,-92.35706,32,31,0.515,51459,1
61943,640175,-0.53906,0.13672,8.76172,0.68804932,-0.01416016,0.05114746,-0.72375488,-5.37271,2.85936,-93.03167,32,31,0.515,51459,1
61944,640186,-0.53906,0.13672,8.76172,0.68359375,-0.02502441,0.04510498,-0.72802734,-5.73466,1.44575,-93.67822,32,31,0.515,51459,1
61945,640199,-1.07422,2.20703,8.40625,0.6786499,-0.03735352,0.03955078,-0.73242188,-6.23688,-0.05929,-94.36142,32,31,0.515,51459,1
61946,640206,-1.07422,0.09766,8.02734,0.67321777,-0.05078125,0.03460693,-0.73687744,-6.85892,-1.61845,-95.07281,32,31,0.515,51459,1
61947,640215,-1.34375,-1.77734,9.40625,0.66766357,-0.06335449,0.02978516,-0.7411499,-7.40842,-3.10343,-95.77093,32,31,0.515,51459,1
61948,640225,-1.34375,-0.74219,11.20703,0.66192627,-0.07476807,0.02416992,-0.74542236,-7.78448,-4.55822,-96.48031,32,31,0.515,51459,1
61949,640237,-1.03906,-1.96875,8.76172,0.65625,-0.08441162,0.01739502,-0.74957275,-7.90996,-5.95339,-97.18382,32,31,0.515,51459,1
61950,640245,-0.88281,-0.85938,8.10547,0.64990234,-0.09368896,0.00830078,-0.75415039,-7.7853,-7.50003,-97.98154,32,31,0.515,51459,1
61951,640255,-0.80859,0.21484,9.17969,0.64398193,-0.10113525,-0.0012207,-0.75836182,-7.46785,-8.91435,-98.74289,32,31,0.515,51459,1
61952,640265,-0.80859,0.21484,9.17969,0.63818359,-0.10778809,-0.01116943,-0.76226807,-7.03693,-10.28647,-99.49256,32,31,0.515,51459,1
61953,640278,-0.15625,2.4375,7.26172,0.63195801,-0.11456299,-0.02185059,-0.76617432,-6.52789,-11.72231,-100.29599,32,31,0.515,51459,1
61954,640285,0.11328,3.01172,6.11328,0.62518311,-0.12182617,-0.03289795,-0.77020264,-5.99387,-13.22634,-101.17112,32,31,0.515,51459,1
61955,640295,0.37891,3.27734,6.34766,0.61877441,-0.12884521,-0.04241943,-0.77380371,-5.56204,-14.58904,-101.9921,32,31,0.515,51459,1
61956,640305,0.64844,3.625,6.65234,0.61199951,-0.13677979,-0.0512085,-0.77728271,-5.24053,-15.97992,-102.83313,32,31,0.515,51459,1
61957,640316,0.72656,4.66016,3.77734,0.60473633,-0.14569092,-0.05865479,-0.78082275,-5.08573,-17.36405,-103.70834,32,31,0.515,51459,1
61958,640325,0.72656,4.54297,2.89453,0.59753418,-0.15478516,-0.06378174,-0.78417969,-5.14216,-18.60117,-104.54353,32,31,0.515,51459,1
61959,640335,1.03125,3.69922,3.46875,0.58911133,-0.16546631,-0.06781006,-0.7880249,-5.37577,-19.91796,-105.49332,32,31,0.515,51459,1
61960,640345,1.03125,3.69922,3.46875,0.58081055,-0.17559814,-0.07086182,-0.79174805,-5.64545,-21.12177,-106.42059,32,31,0.515,51459,1
61961,640358,2.5625,1.47656,3.55078,0.57202148,-0.1854248,-0.07397461,-0.79559326,-5.85814,-22.31284,-107.4124,32,31,0.515,51459,1
61962,640365,3.02344,1.51562,3.27734,0.56201172,-0.19512939,-0.07818604,-0.79998779,-5.90152,-23.58285,-108.58896,32,31,0.515,51459,1
61963,640375,3.32812,1.17188,4.00781,0.55322266,-0.20239258,-0.08282471,-0.80383301,-5.73216,-24.64596,-109.67289,32,31,0.515,51459,1
61964,640385,3.40625,1.05859,5.15625,0.54406738,-0.20880127,-0.08880615,-0.80773926,-5.33358,-25.72006,-110.85563,32,31,0.515,51459,1
61965,640395,2.90625,2.28125,5.84766,0.53393555,-0.21539307,-0.09515381,-0.81207275,-4.85173,-26.83628,-112.19226,32,31,0.515,51459,1
61966,640404,2.52344,2.47266,6.11328,0.52429199,-0.22192383,-0.09912109,-0.81610107,-4.59806,-27.78606,-113.42589,32,31,0.515,51459,1
61967,640415,2.17969,3.35547,6.30859,0.51159668,-0.23150635,-0.10064697,-0.82128906,-4.68832,-28.89868,-114.95216,32,31,0.515,51459,1
61968,640428,2.79297,2.93359,5.92578,0.496521,-0.24371338,-0.09814453,-0.82727051,-5.27885,-30.04807,-116.63855,32,31,0.515,51459,1
61969,640435,4.05859,1.25,5.76953,0.48059082,-0.25689697,-0.09259033,-0.83331299,-6.21223,-31.14292,-118.3212,32,31,0.515,51459,1
61970,640445,5.51172,-0.39844,5.54297,0.46478271,-0.26947021,-0.08569336,-0.83905029,-7.23776,-32.13143,-119.94551,32,31,0.515,51459,1
61971,640455,6.77734,-1.05078,6.03516,0.44793701,-0.28186035,-0.07836914,-0.84484863,-8.24436,-33.12486,-121.67938,32,31,0.515,51459,1
61972,640467,8.30469,-1.58594,7.83594,0.43121338,-0.29284668,-0.07202148,-0.8503418,-9.03429,-34.06743,-123.44726,32,31,0.515,51459,1
61973,640475,8.19531,-1.24219,7.80078,0.41589355,-0.30163574,-0.06744385,-0.85528564,-9.51087,-34.89403,-125.14084,32,31,0.515,51459,1
61974,640485,8.00391,-0.35938,7.30078,0.39990234,-0.30944824,-0.06402588,-0.86035156,-9.73729,-35.71022,-126.99737,32,31,0.515,51459,1
61975,640495,7.85547,0.51953,7.1875,0.38531494,-0.31536865,-0.0625,-0.86499023,-9.65125,-36.42162,-128.79639,32,31,0.515,51459,1
61976,640505,7.85547,0.51953,7.1875,0.37213135,-0.31958008,-0.06280518,-0.86920166,-9.27481,-37.03199,-130.53333,32,31,0.515,51459,1
61977,640515,6.96875,1.82422,6.61328,0.35882568,-0.32269287,-0.0647583,-0.87347412,-8.59823,-37.60244,-132.40186,32,31,0.515,51460,1
61978,640525,6.62891,1.63281,5.42578,0.34552002,-0.32489014,-0.06835938,-0.87768555,-7.63682,-38.13943,-134.38026,32,31,0.515,51460,1
61979,640535,6.47266,1.86328,4.77344,0.33337402,-0.32611084,-0.07305908,-0.8815918,-6.50935,-38.58593,-136.29097,32,31,0.515,51460,1
61980,640546,6.42969,1.28516,5.15625,0.32128906,-0.32672119,-0.07873535,-0.88537598,-5.20499,-38.98346,-138.26646,32,31,0.515,51460,1
61981,640555,6.42969,1.09375,5.30859,0.30950928,-0.32684326,-0.08483887,-0.88891602,-3.81628,-39.31581,-140.24135,32,31,0.515,51460,1
61982,640565,6.27734,0.82812,4.88672,0.29730225,-0.32659912,-0.09143066,-0.89251709,-2.30491,-39.59483,-142.32382,32,31,0.515,51460,1
61983,640575,6.20312,0.94141,4.77344,0.28533936,-0.32611084,-0.09802246,-0.89587402,-0.78122,-39.81195,-144.38335,32,31,0.515,51460,1
